observation,sender,sender_type,sender_id,x,ended_on,duration,time_run,time_render,time_show,time_end,time_commit,timestamp,gender,age,grad,drug,cof,cig,alc,bfi10_e1,bfi10_v2,bfi10_g1,bfi10_n1,bfi10_o1,bfi10_e2,bfi10_v1,bfi10_g2,bfi10_n2,bfi10_o2,story,option_a,option_b,story_number,risk_a,risk_b,fame_known,risk_oa,meme
a7622,welcome,html.Page,0_0,NA,form submission,3600.7389999373,1450.5600000266,1442.609,1459.276,5060.0149999373,5063.0299998447,2020-05-25T18:35:21Z,,,,,,,,,,,,,,,,,,,,,,,,,,NA
de860,welcome,html.Page,0_0,NA,form submission,4896.8370000631,2935.1900001056,2928.756,2945.423,7842.2600000631,7846.1300001945,2020-05-25T18:42:16Z,,,,,,,,,,,,,,,,,,,,,,,,,,NA
de860,dem,html.Page,0_1,NA,form submission,33570.872000042,7846.5800001286,7812.187,7945.523,41516.395000042,41517.34000002,2020-05-25T18:42:50Z,,,,,,,,,,,,,,,,,,,,,,,,,,NA
de860,BFI-10,html.Page,0_2,NA,form submission,34848.003000184,41517.810000107,41497.721,41547.722,76395.725000184,76396.185000194,2020-05-25T18:43:25Z,,,,,,,,,,,,,,,,,,,,,,,,,,NA
de860,Dem,flow.Sequence,0,NA,completion,73450.302000184,2935.1350001525,2928.756,2945.423,76395.725000184,76397.975000087,2020-05-25T18:43:25Z,,,,,,,,,,,,,,,,,,,,,,,,,,NA
de860,SitIntro,html.Page,1_0,NA,form submission,5897.6720001697,76398.300000001,76383.779,76417.113,82314.78500017,82315.600000089,2020-05-25T18:43:30Z,,,,,,,,,,,,,,,,,,,,,,,,,,NA
de860,Sit,html.Page,1_1_0_0,NA,form submission,25959.155000019,82316.015000222,82317.231,82350.565,108309.72000002,108310.43500011,2020-05-25T18:43:56Z,,,,,,,,,,,,,,,,,,,,,,,,,,NA
de860,Seq,flow.Sequence,1_1_0,NA,completion,25959.155000019,82315.970000112000,82317.231,82350.565,108309.72000002,108311.37000001,2020-05-25T18:43:56Z,,,,,,,,,,,,,,,,,,,,,,,,,,NA
de860,Sit,html.Page,1_1_1_0,NA,form submission,62532.115000151,108311.58000021,108319.358,108336.025,170868.14000015,170868.95000003,2020-05-25T18:44:59Z,,,,,,,,,,,,,,,,,,,,,,,,,,NA
de860,Seq,flow.Sequence,1_1_1,NA,completion,62532.115000151,108311.54000014,108319.358,108336.025,170868.14000015,170869.82000014,2020-05-25T18:44:59Z,,,,,,,,,,,,,,,,,,,,,,,,,,NA
de860,Sit,html.Page,1_1_2_0,NA,form submission,18038.778000143,170870.27000007,170873.665,170890.332,188929.11000014,188929.61500003,2020-05-25T18:45:17Z,,,,,,,,,,,,,,,,,,,,,,,,,,NA
de860,Seq,flow.Sequence,1_1_2,NA,completion,18038.778000143,170870.21500012,170873.665,170890.332,188929.11000014,188929.87500015,2020-05-25T18:45:17Z,,,,,,,,,,,,,,,,,,,,,,,,,,NA
de860,Sit,html.Page,1_1_3_0,NA,form submission,51511.147000174,188930.33000012,188924.934,188958.268,240469.41500017,240469.86500011,2020-05-25T18:46:09Z,,,,,,,,,,,,,,,,,,,,,,,,,,NA
de860,Seq,flow.Sequence,1_1_3,NA,completion,51511.147000174,188930.18500018,188924.934,188958.268,240469.41500017,240470.14500014,2020-05-25T18:46:09Z,,,,,,,,,,,,,,,,,,,,,,,,,,NA
de860,Sit,html.Page,1_1_4_0,NA,form submission,29999.382000031,240470.29000008,240478.176,240494.843,270494.22500003,270494.88500017,2020-05-25T18:46:39Z,,,,,,,,,,,,,,,,,,,,,,,,,,NA
de860,Seq,flow.Sequence,1_1_4,NA,completion,29999.382000031,240470.25000001,240478.176,240494.843,270494.22500003,270495.13500021,2020-05-25T18:46:39Z,,,,,,,,,,,,,,,,,,,,,,,,,,NA
de860,Sit,html.Page,1_1_5_0,NA,form submission,82777.748000189,270495.26000023,270496.948,270530.282,353308.03000019,353309.4550001,2020-05-25T18:48:01Z,,,,,,,,,,,,,,,,,,,,,,,,,,NA
de860,Seq,flow.Sequence,1_1_5,NA,completion,82777.748000189,270495.2250002,270496.948,270530.282,353308.03000019,353309.95000014,2020-05-25T18:48:01Z,,,,,,,,,,,,,,,,,,,,,,,,,,NA
de860,Sit,html.Page,1_1_6_0,NA,form submission,87582.430000098,353310.17000019,353319.458,353336.125,440918.5550001,440919.13000005,2020-05-25T18:49:29Z,,,,,,,,,,,,,,,,,,,,,,,,,,NA
de860,Seq,flow.Sequence,1_1_6,NA,completion,87582.430000098,353310.12500008,353319.458,353336.125,440918.5550001,440919.61000022,2020-05-25T18:49:29Z,,,,,,,,,,,,,,,,,,,,,,,,,,NA
de860,Sit,html.Page,1_1_7_0,NA,form submission,65353.058000205,440919.78000011,440925.22,440941.887,506294.94500021,506295.39500014,2020-05-25T18:50:34Z,,,,,,,,,,,,,,,,,,,,,,,,,,NA
de860,Seq,flow.Sequence,1_1_7,NA,completion,65353.058000205,440919.735,440925.22,440941.887,506294.94500021,506295.64500018,2020-05-25T18:50:34Z,,,,,,,,,,,,,,,,,,,,,,,,,,NA
de860,Sit,html.Page,1_1_8_0,NA,form submission,11998.384000101,506295.78500008,506296.512,506329.846,518328.2300001,518328.74500006,2020-05-25T18:50:47Z,,,,,,,,,,,,,,,,,,,,,,,,,,NA
de860,Seq,flow.Sequence,1_1_8,NA,completion,11998.384000101,506295.74500001,506296.512,506329.846,518328.2300001,518329.48000007,2020-05-25T18:50:47Z,,,,,,,,,,,,,,,,,,,,,,,,,,NA
de860,Sit,html.Page,1_1_9_0,NA,form submission,16053.558000201,518329.87500005,518330.698,518364.032,534417.5900002,534418.06500009,2020-05-25T18:51:03Z,,,,,,,,,,,,,,,,,,,,,,,,,,NA
de860,Seq,flow.Sequence,1_1_9,NA,completion,16053.558000201,518329.82500014,518330.698,518364.032,534417.5900002,534418.32000017,2020-05-25T18:51:03Z,,,,,,,,,,,,,,,,,,,,,,,,,,NA
de860,Loop1,flow.Loop,1_1,NA,completion,452067.0250002,82315.885000164,82317.231,82350.565,534417.5900002,534418.55000006,2020-05-25T18:51:03Z,,,,,,,,,,,,,,,,,,,,,,,,,,NA
de860,Progress,html.Page,1_2,NA,form submission,12690.610000098,534418.65000012,534415.198,534431.865,547122.4750001,547123.06000013,2020-05-25T18:51:15Z,,,,,,,,,,,,,,,,,,,,,,,,,,NA
de860,Sit,html.Page,1_3_0_0,NA,form submission,34477.434000209,547123.37000016,547132.119,547148.786,581626.22000021,581626.86000019,2020-05-25T18:51:50Z,,,,,,,,,,,,,,,,,,,,,,,,,,NA
de860,Seq,flow.Sequence,1_3_0,NA,completion,34477.434000209,547123.33000009,547132.119,547148.786,581626.22000021,581627.905,2020-05-25T18:51:50Z,,,,,,,,,,,,,,,,,,,,,,,,,,NA
de860,Sit,html.Page,1_3_1_0,NA,form submission,50424.674000132,581628.15500004,581635.089,581651.756,632076.43000013,632078.04000005,2020-05-25T18:52:40Z,,,,,,,,,,,,,,,,,,,,,,,,,,NA
de860,Seq,flow.Sequence,1_3_1,NA,completion,50424.674000132,581628.10500013,581635.089,581651.756,632076.43000013,632078.37500004,2020-05-25T18:52:40Z,,,,,,,,,,,,,,,,,,,,,,,,,,NA
de860,Sit,html.Page,1_3_2_0,NA,form submission,38806.818000229,632078.5350001,632072.213,632105.547,670912.36500023,670912.79500001,2020-05-25T18:53:19Z,,,,,,,,,,,,,,,,,,,,,,,,,,NA
de860,Seq,flow.Sequence,1_3_2,NA,completion,38806.818000229,632078.49500002,632072.213,632105.547,670912.36500023,670913.28500002,2020-05-25T18:53:19Z,,,,,,,,,,,,,,,,,,,,,,,,,,NA
de860,Sit,html.Page,1_3_3_0,NA,form submission,27160.74400004,670913.80500002,670924.539,670941.206,698101.95000004,698102.80000023,2020-05-25T18:53:46Z,,,,,,,,,,,,,,,,,,,,,,,,,,NA
de860,Seq,flow.Sequence,1_3_3,NA,completion,27160.74400004,670913.68,670924.539,670941.206,698101.95000004,698103.24500012,2020-05-25T18:53:46Z,,,,,,,,,,,,,,,,,,,,,,,,,,NA
de860,Sit,html.Page,1_3_4_0,NA,form submission,11446.044000022,698103.44500002,698109.699,698126.366,709572.41000002,709573.3200002,2020-05-25T18:53:58Z,,,,,,,,,,,,,,,,,,,,,,,,,,NA
de860,Seq,flow.Sequence,1_3_4,NA,completion,11446.044000022,698103.3950001,698109.699,698126.366,709572.41000002,709573.72000022,2020-05-25T18:53:58Z,,,,,,,,,,,,,,,,,,,,,,,,,,NA
de860,Sit,html.Page,1_3_5_0,NA,form submission,55258.720000201,709573.88500008,709577.318,709593.985,764852.7050002,764854.28000009,2020-05-25T18:54:53Z,,,,,,,,,,,,,,,,,,,,,,,,,,NA
de860,Seq,flow.Sequence,1_3_5,NA,completion,55258.720000201,709573.84500001,709577.318,709593.985,764852.7050002,764854.70500006,2020-05-25T18:54:53Z,,,,,,,,,,,,,,,,,,,,,,,,,,NA
de860,Sit,html.Page,1_3_6_0,NA,form submission,22233.306000172,764854.87500019,764864.317,764880.984,787114.29000017,787114.82000002,2020-05-25T18:55:15Z,,,,,,,,,,,,,,,,,,,,,,,,,,NA
de860,Seq,flow.Sequence,1_3_6,NA,completion,22233.306000172,764854.8450002,764864.317,764880.984,787114.29000017,787115.77500007,2020-05-25T18:55:15Z,,,,,,,,,,,,,,,,,,,,,,,,,,NA
de860,Sit,html.Page,1_3_7_0,NA,form submission,75690.501000208,787117.57,787115.845,787149.179,862839.68000021,862840.4300001,2020-05-25T18:56:31Z,,,,,,,,,,,,,,,,,,,,,,,,,,NA
de860,Seq,flow.Sequence,1_3_7,NA,completion,75690.501000208,787117.41500022,787115.845,787149.179,862839.68000021,862841.84000012,2020-05-25T18:56:31Z,,,,,,,,,,,,,,,,,,,,,,,,,,NA
de860,Sit,html.Page,1_3_8_0,NA,form submission,17598.739000214,862842.27000014,862837.867,862871.201,880469.94000021,880470.28500005,2020-05-25T18:56:49Z,,,,,,,,,,,,,,,,,,,,,,,,,,NA
de860,Seq,flow.Sequence,1_3_8,NA,completion,17598.739000214,862842.11500012,862837.867,862871.201,880469.94000021,880470.48000013,2020-05-25T18:56:49Z,,,,,,,,,,,,,,,,,,,,,,,,,,NA
de860,Sit,html.Page,1_3_9_0,NA,form submission,59928.940000097,880470.59500008,880472.181,880505.515,940434.4550001,940434.80000016,2020-05-25T18:57:49Z,,,,,,,,,,,,,,,,,,,,,,,,,,NA
de860,Seq,flow.Sequence,1_3_9,NA,completion,59928.940000097,880470.56000005,880472.181,880505.515,940434.4550001,940434.98000014,2020-05-25T18:57:49Z,,,,,,,,,,,,,,,,,,,,,,,,,,NA
de860,Loop2,flow.Loop,1_3,NA,completion,393285.6690001,547123.2700001,547132.119,547148.786,940434.4550001,940435.12000004,2020-05-25T18:57:49Z,,,,,,,,,,,,,,,,,,,,,,,,,,NA
de860,Progress,html.Page,1_4,NA,form submission,10200.30900017,940435.20500022,940443.149,940459.816,950660.12500017,950660.64000013,2020-05-25T18:57:59Z,,,,,,,,,,,,,,,,,,,,,,,,,,NA
de860,Sit,html.Page,1_5_0_0,NA,form submission,26818.032000145,950660.95000017,950660.02,950694.218,977512.25000015,977512.80000014,2020-05-25T18:58:26Z,,,,,,,,,,,,,,,,,,,,,,,,,,NA
de860,Seq,flow.Sequence,1_5_0,NA,completion,26818.032000145,950660.90000002,950660.02,950694.218,977512.25000015,977513.1750002,2020-05-25T18:58:26Z,,,,,,,,,,,,,,,,,,,,,,,,,,NA
de860,Sit,html.Page,1_5_1_0,NA,form submission,29929.899000124,977513.74500012,977512.352,977545.686,1007475.5850001,1007476.7900002,2020-05-25T18:58:56Z,,,,,,,,,,,,,,,,,,,,,,,,,,NA
de860,Seq,flow.Sequence,1_5_1,NA,completion,29929.899000124,977513.69500021,977512.352,977545.686,1007475.5850001,1007477.6350001,2020-05-25T18:58:56Z,,,,,,,,,,,,,,,,,,,,,,,,,,NA
de860,Sit,html.Page,1_5_2_0,NA,form submission,12933.078000102,1007477.865,1007480.922,1007498.167,1020431.2450001,1020431.7750002,2020-05-25T18:59:09Z,,,,,,,,,,,,,,,,,,,,,,,,,,NA
de860,Seq,flow.Sequence,1_5_2,NA,completion,12933.078000102,1007477.7850001,1007480.922,1007498.167,1020431.2450001,1020432.1100002,2020-05-25T18:59:09Z,,,,,,,,,,,,,,,,,,,,,,,,,,NA
de860,Sit,html.Page,1_5_3_0,NA,form submission,62057.320000177,1020432.2600001,1020432.241,1020465.575,1082522.8950002,1082523.3550002,2020-05-25T19:00:11Z,,,,,,,,,,,,,,,,,,,,,,,,,,NA
de860,Seq,flow.Sequence,1_5_3,NA,completion,62057.320000177,1020432.2250001,1020432.241,1020465.575,1082522.8950002,1082524.5450002,2020-05-25T19:00:11Z,,,,,,,,,,,,,,,,,,,,,,,,,,NA
39ef7,welcome,html.Page,0_0,NA,form submission,127855,3496,3508,3522,131377,131379,2020-05-25T19:01:23Z,,,,,,,,,,,,,,,,,,,,,,,,,,NA
de860,Sit,html.Page,1_5_4_0,NA,form submission,108329.29200002,1082524.9200002,1082519.684,1082553.018,1190882.31,1190883.0000001,2020-05-25T19:01:59Z,,,,,,,,,,,,,,,,,,,,,,,,,,NA
de860,Seq,flow.Sequence,1_5_4,NA,completion,108329.29200002,1082524.8800002,1082519.684,1082553.018,1190882.31,1190883.2750001,2020-05-25T19:01:59Z,,,,,,,,,,,,,,,,,,,,,,,,,,NA
de860,Sit,html.Page,1_5_5_0,NA,form submission,30185.549000064,1190883.4250001,1190877.077,1190910.411,1221095.9600001,1221097.3250002,2020-05-25T19:02:29Z,,,,,,,,,,,,,,,,,,,,,,,,,,NA
de860,Seq,flow.Sequence,1_5_5,NA,completion,30185.549000064,1190883.3850001,1190877.077,1190910.411,1221095.9600001,1221097.7100001,2020-05-25T19:02:29Z,,,,,,,,,,,,,,,,,,,,,,,,,,NA
39ef7,dem,html.Page,0_1,NA,form submission,105146,131381,131397,131428,236574,236577,2020-05-25T19:03:08Z,,,,,,,,,,,,,,,,,,,,,,,,,,NA
de860,Sit,html.Page,1_5_6_0,NA,form submission,66598.657000165,1221097.9650002,1221095.632,1221129.563,1287728.2200002,1287728.8350002,2020-05-25T19:03:36Z,,,,,,,,,,,,,,,,,,,,,,,,,,NA
de860,Seq,flow.Sequence,1_5_6,NA,completion,66598.657000165,1221097.91,1221095.632,1221129.563,1287728.2200002,1287729.1900001,2020-05-25T19:03:36Z,,,,,,,,,,,,,,,,,,,,,,,,,,NA
de860,Sit,html.Page,1_5_7_0,NA,form submission,85429.339000087,1287729.3550002,1287734.014,1287750.681,1373180.0200001,1373180.5250002,2020-05-25T19:05:01Z,,,,,,,,,,,,,,,,,,,,,,,,,,NA
de860,Seq,flow.Sequence,1_5_7,NA,completion,85429.339000087,1287729.3150001,1287734.014,1287750.681,1373180.0200001,1373181.0050001,2020-05-25T19:05:01Z,,,,,,,,,,,,,,,,,,,,,,,,,,NA
de860,Sit,html.Page,1_5_8_0,NA,form submission,17194.62500002,1373181.2600002,1373189.793,1373206.46,1390401.085,1390401.4350001,2020-05-25T19:05:19Z,,,,,,,,,,,,,,,,,,,,,,,,,,NA
de860,Seq,flow.Sequence,1_5_8,NA,completion,17194.62500002,1373181.1300002,1373189.793,1373206.46,1390401.085,1390401.6300002,2020-05-25T19:05:19Z,,,,,,,,,,,,,,,,,,,,,,,,,,NA
de860,Sit,html.Page,1_5_9_0,NA,form submission,11585.609000096,1390401.7400001,1390407.399,1390424.066,1402009.6750001,1402011.0450001,2020-05-25T19:05:30Z,,,,,,,,,,,,,,,,,,,,,,,,,,NA
de860,Seq,flow.Sequence,1_5_9,NA,completion,11585.609000096,1390401.7100001,1390407.399,1390424.066,1402009.6750001,1402011.9350001,2020-05-25T19:05:30Z,,,,,,,,,,,,,,,,,,,,,,,,,,NA
de860,Loop3,flow.Loop,1_5,NA,completion,451315.4570001,950660.84000003,950660.02,950694.218,1402009.6750001,1402012.0900001,2020-05-25T19:05:30Z,,,,,,,,,,,,,,,,,,,,,,,,,,NA
de860,Risk_assessment,flow.Sequence,1,NA,completion,1325592.5620001,76398.245000048,76383.779,76417.113,1402009.6750001,1402012.39,2020-05-25T19:05:30Z,,,,,,,,,,,,,,,,,,,,,,,,,,NA
39ef7,BFI-10,html.Page,0_2,NA,form submission,169185,236577,236596,236631,405816,405817,2020-05-25T19:05:58Z,,,,,,,,,,,,,,,,,,,,,,,,,,NA
39ef7,Dem,flow.Sequence,0,NA,completion,402294,3495,3508,3522,405816,405821,2020-05-25T19:05:58Z,,,,,,,,,,,,,,,,,,,,,,,,,,NA
3fc06,welcome,html.Page,0_0,NA,form submission,29534,766,775,781,30315,30318,2020-05-25T19:07:44Z,,,,,,,,,,,,,,,,,,,,,,,,,,NA
9cc40,welcome,html.Page,0_0,NA,form submission,21126,2289,2312,2335,23461,23464,2020-05-25T19:07:51Z,,,,,,,,,,,,,,,,,,,,,,,,,,NA
9cc40,dem,html.Page,0_1,NA,form submission,34254,23465,23468,23507,57761,57764,2020-05-25T19:08:25Z,,,,,,,,,,,,,,,,,,,,,,,,,,NA
3fc06,dem,html.Page,0_1,NA,form submission,44398,30320,30323,30413,74811,74813,2020-05-25T19:08:29Z,,,,,,,,,,,,,,,,,,,,,,,,,,NA
39ef7,SitIntro,html.Page,1_0,NA,form submission,179835,405822,405838,405850,585685,585688,2020-05-25T19:08:57Z,,,,,,,,,,,,,,,,,,,,,,,,,,NA
9cc40,BFI-10,html.Page,0_2,NA,form submission,35393,57765,57800,57839,93232,93233,2020-05-25T19:09:01Z,,,,,,,,,,,,,,,,,,,,,,,,,,NA
9cc40,Dem,flow.Sequence,0,NA,completion,90897,2289,2312,2335,93232,93235,2020-05-25T19:09:01Z,,,,,,,,,,,,,,,,,,,,,,,,,,NA
3fc06,BFI-10,html.Page,0_2,NA,form submission,39436,74814,74830,74888,114324,114326,2020-05-25T19:09:08Z,,,,,,,,,,,,,,,,,,,,,,,,,,NA
3fc06,Dem,flow.Sequence,0,NA,completion,113543,766,775,781,114324,114327,2020-05-25T19:09:08Z,,,,,,,,,,,,,,,,,,,,,,,,,,NA
9cc40,SitIntro,html.Page,1_0,NA,form submission,42627,93236,93251,93262,135889,135890,2020-05-25T19:09:43Z,,,,,,,,,,,,,,,,,,,,,,,,,,NA
3fc06,SitIntro,html.Page,1_0,NA,form submission,47664,114329,114338,114355,162019,162020,2020-05-25T19:09:56Z,,,,,,,,,,,,,,,,,,,,,,,,,,NA
9cc40,Sit,html.Page,1_1_0_0,NA,form submission,24428,135891,135897,135961,160389,160390,2020-05-25T19:10:08Z,,,,,,,,,,,,,,,,,,,,,,,,,,NA
9cc40,Seq,flow.Sequence,1_1_0,NA,completion,24428,135891,135897,135961,160389,160391,2020-05-25T19:10:08Z,,,,,,,,,,,,,,,,,,,,,,,,,,NA
a240f,welcome,html.Page,0_0,NA,form submission,59452.38,10547,10552.94,10619.62,70072,70078,2020-05-25T19:10:12Z,,,,,,,,,,,,,,,,,,,,,,,,,,NA
9cc40,Sit,html.Page,1_1_1_0,NA,form submission,27146,160391,160407,160451,187597,187598,2020-05-25T19:10:35Z,,,,,,,,,,,,,,,,,,,,,,,,,,NA
9cc40,Seq,flow.Sequence,1_1_1,NA,completion,27146,160391,160407,160451,187597,187599,2020-05-25T19:10:35Z,,,,,,,,,,,,,,,,,,,,,,,,,,NA
a240f,dem,html.Page,0_1,NA,form submission,35161.98,70088,70096.94,70147.02,105309,105313,2020-05-25T19:10:47Z,,,,,,,,,,,,,,,,,,,,,,,,,,NA
bb763,welcome,html.Page,0_0,NA,form submission,140138.31100006,2335.3999999817,2338.842,2405.789,142544.10000006,142545.79999996,2020-05-25T19:10:53Z,,,,,,,,,,,,,,,,,,,,,,,,,,NA
39ef7,Sit,html.Page,1_1_0_0,NA,form submission,116117,585689,585709,585743,701860,701862,2020-05-25T19:10:54Z,,,,,,,,,,,,,,,,,,,,,,,,,,NA
39ef7,Seq,flow.Sequence,1_1_0,NA,completion,116117,585688,585709,585743,701860,701863,2020-05-25T19:10:54Z,,,,,,,,,,,,,,,,,,,,,,,,,,NA
9cc40,Sit,html.Page,1_1_2_0,NA,form submission,30981,187600,187620,187659,218640,218641,2020-05-25T19:11:06Z,,,,,,,,,,,,,,,,,,,,,,,,,,NA
9cc40,Seq,flow.Sequence,1_1_2,NA,completion,30981,187600,187620,187659,218640,218641,2020-05-25T19:11:06Z,,,,,,,,,,,,,,,,,,,,,,,,,,NA
3fc06,Sit,html.Page,1_1_0_0,NA,form submission,81458,162022,162026,162064,243522,243524,2020-05-25T19:11:17Z,,,,,,,,,,,,,,,,,,,,,,,,,,NA
3fc06,Seq,flow.Sequence,1_1_0,NA,completion,81458,162021,162026,162064,243522,243525,2020-05-25T19:11:17Z,,,,,,,,,,,,,,,,,,,,,,,,,,NA
a240f,BFI-10,html.Page,0_2,NA,form submission,41816,105320,105319.2,105386,147202,147206,2020-05-25T19:11:29Z,,,,,,,,,,,,,,,,,,,,,,,,,,NA
a240f,Dem,flow.Sequence,0,NA,completion,136582.38,10547,10552.94,10619.62,147202,147211,2020-05-25T19:11:29Z,,,,,,,,,,,,,,,,,,,,,,,,,,NA
9cc40,Sit,html.Page,1_1_3_0,NA,form submission,26093,218642,218659,218704,244797,244798,2020-05-25T19:11:32Z,,,,,,,,,,,,,,,,,,,,,,,,,,NA
9cc40,Seq,flow.Sequence,1_1_3,NA,completion,26093,218642,218659,218704,244797,244798,2020-05-25T19:11:32Z,,,,,,,,,,,,,,,,,,,,,,,,,,NA
bb763,dem,html.Page,0_1,NA,form submission,41944.470999969,142546.50000005,142533.263,142600.229,184544.69999997,184545.40000006,2020-05-25T19:11:35Z,,,,,,,,,,,,,,,,,,,,,,,,,,NA
3fc06,Sit,html.Page,1_1_1_0,NA,form submission,22566,243526,243542,243576,266142,266143,2020-05-25T19:11:40Z,,,,,,,,,,,,,,,,,,,,,,,,,,NA
3fc06,Seq,flow.Sequence,1_1_1,NA,completion,22566,243526,243542,243576,266142,266144,2020-05-25T19:11:40Z,,,,,,,,,,,,,,,,,,,,,,,,,,NA
39ef7,Sit,html.Page,1_1_1_0,NA,form submission,50738,701863,701880,701912,752650,752652,2020-05-25T19:11:44Z,,,,,,,,,,,,,,,,,,,,,,,,,,NA
39ef7,Seq,flow.Sequence,1_1_1,NA,completion,50738,701863,701880,701912,752650,752653,2020-05-25T19:11:44Z,,,,,,,,,,,,,,,,,,,,,,,,,,NA
9cc40,Sit,html.Page,1_1_4_0,NA,form submission,19474,244799,244818,244864,264338,264342,2020-05-25T19:11:52Z,,,,,,,,,,,,,,,,,,,,,,,,,,NA
9cc40,Seq,flow.Sequence,1_1_4,NA,completion,19474,244799,244818,244864,264338,264344,2020-05-25T19:11:52Z,,,,,,,,,,,,,,,,,,,,,,,,,,NA
a240f,SitIntro,html.Page,1_0,NA,form submission,32665.62,147214,147218.36,147235.38,179901,179903,2020-05-25T19:12:02Z,,,,,,,,,,,,,,,,,,,,,,,,,,NA
9cc40,Sit,html.Page,1_1_5_0,NA,form submission,22975,264345,264361,264409,287384,287385,2020-05-25T19:12:15Z,,,,,,,,,,,,,,,,,,,,,,,,,,NA
9cc40,Seq,flow.Sequence,1_1_5,NA,completion,22975,264344,264361,264409,287384,287385,2020-05-25T19:12:15Z,,,,,,,,,,,,,,,,,,,,,,,,,,NA
3fc06,Sit,html.Page,1_1_2_0,NA,form submission,34804,266146,266162,266196,301000,301001,2020-05-25T19:12:15Z,,,,,,,,,,,,,,,,,,,,,,,,,,NA
3fc06,Seq,flow.Sequence,1_1_2,NA,completion,34804,266145,266162,266196,301000,301002,2020-05-25T19:12:15Z,,,,,,,,,,,,,,,,,,,,,,,,,,NA
39ef7,Sit,html.Page,1_1_2_0,NA,form submission,38740,752653,752670,752709,791449,791450,2020-05-25T19:12:23Z,,,,,,,,,,,,,,,,,,,,,,,,,,NA
39ef7,Seq,flow.Sequence,1_1_2,NA,completion,38740,752653,752670,752709,791449,791450,2020-05-25T19:12:23Z,,,,,,,,,,,,,,,,,,,,,,,,,,NA
bb763,BFI-10,html.Page,0_2,NA,form submission,50985.659999988,184545.99999997,184535.77,184569.24,235554.89999999,235555.50000002,2020-05-25T19:12:26Z,,,,,,,,,,,,,,,,,,,,,,,,,,NA
bb763,Dem,flow.Sequence,0,NA,completion,233149.11099999,2335.3000000352,2338.842,2405.789,235554.89999999,235559.09999995,2020-05-25T19:12:26Z,,,,,,,,,,,,,,,,,,,,,,,,,,NA
9cc40,Sit,html.Page,1_1_6_0,NA,form submission,18786,287386,287405,287450,306236,306237,2020-05-25T19:12:34Z,,,,,,,,,,,,,,,,,,,,,,,,,,NA
9cc40,Seq,flow.Sequence,1_1_6,NA,completion,18786,287386,287405,287450,306236,306237,2020-05-25T19:12:34Z,,,,,,,,,,,,,,,,,,,,,,,,,,NA
a240f,Sit,html.Page,1_1_0_0,NA,form submission,32634.02,179909,179903.38,179986.98,212621,212624,2020-05-25T19:12:35Z,,,,,,,,,,,,,,,,,,,,,,,,,,NA
a240f,Seq,flow.Sequence,1_1_0,NA,completion,32634.02,179908,179903.38,179986.98,212621,212627,2020-05-25T19:12:35Z,,,,,,,,,,,,,,,,,,,,,,,,,,NA
3fc06,Sit,html.Page,1_1_3_0,NA,form submission,27057,301003,301010,301051,328108,328108,2020-05-25T19:12:42Z,,,,,,,,,,,,,,,,,,,,,,,,,,NA
3fc06,Seq,flow.Sequence,1_1_3,NA,completion,27057,301003,301010,301051,328108,328110,2020-05-25T19:12:42Z,,,,,,,,,,,,,,,,,,,,,,,,,,NA
9cc40,Sit,html.Page,1_1_7_0,NA,form submission,26594,306238,306256,306302,332896,332898,2020-05-25T19:13:00Z,,,,,,,,,,,,,,,,,,,,,,,,,,NA
9cc40,Seq,flow.Sequence,1_1_7,NA,completion,26594,306238,306256,306302,332896,332899,2020-05-25T19:13:00Z,,,,,,,,,,,,,,,,,,,,,,,,,,NA
a240f,Sit,html.Page,1_1_1_0,NA,form submission,32933.04,212631,212638.5,212721.96,245655,245657,2020-05-25T19:13:08Z,,,,,,,,,,,,,,,,,,,,,,,,,,NA
a240f,Seq,flow.Sequence,1_1_1,NA,completion,32933.04,212631,212638.5,212721.96,245655,245662,2020-05-25T19:13:08Z,,,,,,,,,,,,,,,,,,,,,,,,,,NA
3fc06,Sit,html.Page,1_1_4_0,NA,form submission,28937,328111,328128,328159,357096,357097,2020-05-25T19:13:11Z,,,,,,,,,,,,,,,,,,,,,,,,,,NA
3fc06,Seq,flow.Sequence,1_1_4,NA,completion,28937,328110,328128,328159,357096,357098,2020-05-25T19:13:11Z,,,,,,,,,,,,,,,,,,,,,,,,,,NA
39ef7,Sit,html.Page,1_1_3_0,NA,form submission,53612,791451,791469,791509,845121,845122,2020-05-25T19:13:17Z,,,,,,,,,,,,,,,,,,,,,,,,,,NA
39ef7,Seq,flow.Sequence,1_1_3,NA,completion,53612,791451,791469,791509,845121,845122,2020-05-25T19:13:17Z,,,,,,,,,,,,,,,,,,,,,,,,,,NA
bb763,SitIntro,html.Page,1_0,NA,form submission,57821.222000003,235559.60000004,235557.943,235574.678,293395.9,293396.79999999,2020-05-25T19:13:24Z,,,,,,,,,,,,,,,,,,,,,,,,,,NA
3fc06,Sit,html.Page,1_1_5_0,NA,form submission,15123,357100,357116,357148,372271,372272,2020-05-25T19:13:26Z,,,,,,,,,,,,,,,,,,,,,,,,,,NA
3fc06,Seq,flow.Sequence,1_1_5,NA,completion,15123,357099,357116,357148,372271,372273,2020-05-25T19:13:26Z,,,,,,,,,,,,,,,,,,,,,,,,,,NA
9cc40,Sit,html.Page,1_1_8_0,NA,form submission,25261,332899,332918,332964,358225,358226,2020-05-25T19:13:26Z,,,,,,,,,,,,,,,,,,,,,,,,,,NA
9cc40,Seq,flow.Sequence,1_1_8,NA,completion,25261,332899,332918,332964,358225,358227,2020-05-25T19:13:26Z,,,,,,,,,,,,,,,,,,,,,,,,,,NA
9cc40,Sit,html.Page,1_1_9_0,NA,form submission,18101,358228,358249,358293,376394,376394,2020-05-25T19:13:44Z,,,,,,,,,,,,,,,,,,,,,,,,,,NA
9cc40,Seq,flow.Sequence,1_1_9,NA,completion,18101,358228,358249,358293,376394,376395,2020-05-25T19:13:44Z,,,,,,,,,,,,,,,,,,,,,,,,,,NA
9cc40,Loop1,flow.Loop,1_1,NA,completion,240433,135891,135897,135961,376394,376395,2020-05-25T19:13:44Z,,,,,,,,,,,,,,,,,,,,,,,,,,NA
9cc40,Progress,html.Page,1_2,NA,form submission,4220,376396,376406,376419,380639,380641,2020-05-25T19:13:48Z,,,,,,,,,,,,,,,,,,,,,,,,,,NA
39ef7,Sit,html.Page,1_1_4_0,NA,form submission,36170,845122,845141,845181,881351,881352,2020-05-25T19:13:53Z,,,,,,,,,,,,,,,,,,,,,,,,,,NA
39ef7,Seq,flow.Sequence,1_1_4,NA,completion,36170,845122,845141,845181,881351,881352,2020-05-25T19:13:53Z,,,,,,,,,,,,,,,,,,,,,,,,,,NA
a240f,Sit,html.Page,1_1_2_0,NA,form submission,45947.56,245666,245674,245757.44,291705,291708,2020-05-25T19:13:54Z,,,,,,,,,,,,,,,,,,,,,,,,,,NA
a240f,Seq,flow.Sequence,1_1_2,NA,completion,45947.56,245665,245674,245757.44,291705,291711,2020-05-25T19:13:54Z,,,,,,,,,,,,,,,,,,,,,,,,,,NA
3fc06,Sit,html.Page,1_1_6_0,NA,form submission,31207,372274,372291,372324,403531,403532,2020-05-25T19:13:57Z,,,,,,,,,,,,,,,,,,,,,,,,,,NA
3fc06,Seq,flow.Sequence,1_1_6,NA,completion,31207,372274,372291,372324,403531,403533,2020-05-25T19:13:57Z,,,,,,,,,,,,,,,,,,,,,,,,,,NA
bb763,Sit,html.Page,1_1_0_0,NA,form submission,40328.352999992,293397.89999998,293398.231,293448.447,333776.79999999,333777.40000002,2020-05-25T19:14:05Z,,,,,,,,,,,,,,,,,,,,,,,,,,NA
bb763,Seq,flow.Sequence,1_1_0,NA,completion,40328.352999992,293397.80000004,293398.231,293448.447,333776.79999999,333778.20000006,2020-05-25T19:14:05Z,,,,,,,,,,,,,,,,,,,,,,,,,,NA
9cc40,Sit,html.Page,1_3_0_0,NA,form submission,21995,380642,380665,380713,402708,402708,2020-05-25T19:14:10Z,,,,,,,,,,,,,,,,,,,,,,,,,,NA
9cc40,Seq,flow.Sequence,1_3_0,NA,completion,21995,380642,380665,380713,402708,402709,2020-05-25T19:14:10Z,,,,,,,,,,,,,,,,,,,,,,,,,,NA
a240f,Sit,html.Page,1_1_3_0,NA,form submission,23360.52,291715,291714.14,291813.48,315174,315176,2020-05-25T19:14:17Z,,,,,,,,,,,,,,,,,,,,,,,,,,NA
a240f,Seq,flow.Sequence,1_1_3,NA,completion,23360.52,291714,291714.14,291813.48,315174,315178,2020-05-25T19:14:17Z,,,,,,,,,,,,,,,,,,,,,,,,,,NA
3fc06,Sit,html.Page,1_1_7_0,NA,form submission,23519,403533,403541,403582,427101,427102,2020-05-25T19:14:21Z,,,,,,,,,,,,,,,,,,,,,,,,,,NA
3fc06,Seq,flow.Sequence,1_1_7,NA,completion,23519,403533,403541,403582,427101,427103,2020-05-25T19:14:21Z,,,,,,,,,,,,,,,,,,,,,,,,,,NA
a240f,Sit,html.Page,1_1_4_0,NA,form submission,21990.88,315180,315183.64,315267.12,337258,337259,2020-05-25T19:14:39Z,,,,,,,,,,,,,,,,,,,,,,,,,,NA
a240f,Seq,flow.Sequence,1_1_4,NA,completion,21990.88,315178,315183.64,315267.12,337258,337261,2020-05-25T19:14:39Z,,,,,,,,,,,,,,,,,,,,,,,,,,NA
9cc40,Sit,html.Page,1_3_1_0,NA,form submission,34088,402710,402737,402782,436870,436872,2020-05-25T19:14:44Z,,,,,,,,,,,,,,,,,,,,,,,,,,NA
9cc40,Seq,flow.Sequence,1_3_1,NA,completion,34088,402710,402737,402782,436870,436873,2020-05-25T19:14:44Z,,,,,,,,,,,,,,,,,,,,,,,,,,NA
bb763,Sit,html.Page,1_1_1_0,NA,form submission,42149.37999997,333779.89999996,333776.849,333793.62,375942.99999997,375943.6,2020-05-25T19:14:47Z,,,,,,,,,,,,,,,,,,,,,,,,,,NA
bb763,Seq,flow.Sequence,1_1_1,NA,completion,42149.37999997,333779.80000002,333776.849,333793.62,375942.99999997,375944.20000003,2020-05-25T19:14:47Z,,,,,,,,,,,,,,,,,,,,,,,,,,NA
3fc06,Sit,html.Page,1_1_8_0,NA,form submission,28275,427104,427121,427154,455429,455430,2020-05-25T19:14:49Z,,,,,,,,,,,,,,,,,,,,,,,,,,NA
3fc06,Seq,flow.Sequence,1_1_8,NA,completion,28275,427103,427121,427154,455429,455431,2020-05-25T19:14:49Z,,,,,,,,,,,,,,,,,,,,,,,,,,NA
39ef7,Sit,html.Page,1_1_5_0,NA,form submission,62757,881353,881371,881411,944168,944169,2020-05-25T19:14:56Z,,,,,,,,,,,,,,,,,,,,,,,,,,NA
39ef7,Seq,flow.Sequence,1_1_5,NA,completion,62757,881353,881371,881411,944168,944170,2020-05-25T19:14:56Z,,,,,,,,,,,,,,,,,,,,,,,,,,NA
9cc40,Sit,html.Page,1_3_2_0,NA,form submission,21214,436874,436888,436920,458134,458134,2020-05-25T19:15:06Z,,,,,,,,,,,,,,,,,,,,,,,,,,NA
9cc40,Seq,flow.Sequence,1_3_2,NA,completion,21214,436873,436888,436920,458134,458135,2020-05-25T19:15:06Z,,,,,,,,,,,,,,,,,,,,,,,,,,NA
a240f,Sit,html.Page,1_1_5_0,NA,form submission,28924,337263,337268.46,337352,366276,366277,2020-05-25T19:15:08Z,,,,,,,,,,,,,,,,,,,,,,,,,,NA
a240f,Seq,flow.Sequence,1_1_5,NA,completion,28924,337262,337268.46,337352,366276,366279,2020-05-25T19:15:08Z,,,,,,,,,,,,,,,,,,,,,,,,,,NA
3fc06,Sit,html.Page,1_1_9_0,NA,form submission,31437,455432,455448,455477,486914,486915,2020-05-25T19:15:21Z,,,,,,,,,,,,,,,,,,,,,,,,,,NA
3fc06,Seq,flow.Sequence,1_1_9,NA,completion,31437,455432,455448,455477,486914,486916,2020-05-25T19:15:21Z,,,,,,,,,,,,,,,,,,,,,,,,,,NA
3fc06,Loop1,flow.Loop,1_1,NA,completion,324850,162021,162026,162064,486914,486917,2020-05-25T19:15:21Z,,,,,,,,,,,,,,,,,,,,,,,,,,NA
3fc06,Progress,html.Page,1_2,NA,form submission,4020,486917,486925,486938,490958,490959,2020-05-25T19:15:25Z,,,,,,,,,,,,,,,,,,,,,,,,,,NA
bb763,Sit,html.Page,1_1_2_0,NA,form submission,41772.195999993,375944.49999998,375941.736,375975.204,417747.39999999,417748.09999997,2020-05-25T19:15:29Z,,,,,,,,,,,,,,,,,,,,,,,,,,NA
bb763,Seq,flow.Sequence,1_1_2,NA,completion,41772.195999993,375944.40000004,375941.736,375975.204,417747.39999999,417748.49999999,2020-05-25T19:15:29Z,,,,,,,,,,,,,,,,,,,,,,,,,,NA
9cc40,Sit,html.Page,1_3_3_0,NA,form submission,24459,458138,458156,458199,482658,482662,2020-05-25T19:15:30Z,,,,,,,,,,,,,,,,,,,,,,,,,,NA
9cc40,Seq,flow.Sequence,1_3_3,NA,completion,24459,458138,458156,458199,482658,482663,2020-05-25T19:15:30Z,,,,,,,,,,,,,,,,,,,,,,,,,,NA
a240f,Sit,html.Page,1_1_6_0,NA,form submission,23953.62,366281,366280.9,366364.38,390318,390319,2020-05-25T19:15:32Z,,,,,,,,,,,,,,,,,,,,,,,,,,NA
a240f,Seq,flow.Sequence,1_1_6,NA,completion,23953.62,366279,366280.9,366364.38,390318,390322,2020-05-25T19:15:32Z,,,,,,,,,,,,,,,,,,,,,,,,,,NA
39ef7,Sit,html.Page,1_1_6_0,NA,form submission,51232,944170,944187,944228,995460,995460,2020-05-25T19:15:47Z,,,,,,,,,,,,,,,,,,,,,,,,,,NA
39ef7,Seq,flow.Sequence,1_1_6,NA,completion,51232,944170,944187,944228,995460,995461,2020-05-25T19:15:47Z,,,,,,,,,,,,,,,,,,,,,,,,,,NA
bb763,Sit,html.Page,1_1_3_0,NA,form submission,32471.911000051,417748.90000001,417746.825,417780.389,450252.30000005,450252.80000002,2020-05-25T19:16:01Z,,,,,,,,,,,,,,,,,,,,,,,,,,NA
bb763,Seq,flow.Sequence,1_1_3,NA,completion,32471.911000051,417748.80000006,417746.825,417780.389,450252.30000005,450253.40000005,2020-05-25T19:16:01Z,,,,,,,,,,,,,,,,,,,,,,,,,,NA
3fc06,Sit,html.Page,1_3_0_0,NA,form submission,39477,490960,490964,491014,530491,530492,2020-05-25T19:16:04Z,,,,,,,,,,,,,,,,,,,,,,,,,,NA
3fc06,Seq,flow.Sequence,1_3_0,NA,completion,39477,490960,490964,491014,530491,530493,2020-05-25T19:16:04Z,,,,,,,,,,,,,,,,,,,,,,,,,,NA
9cc40,Sit,html.Page,1_3_4_0,NA,form submission,44243,482664,482683,482727,526970,526970,2020-05-25T19:16:14Z,,,,,,,,,,,,,,,,,,,,,,,,,,NA
9cc40,Seq,flow.Sequence,1_3_4,NA,completion,44243,482664,482683,482727,526970,526971,2020-05-25T19:16:14Z,,,,,,,,,,,,,,,,,,,,,,,,,,NA
a240f,Sit,html.Page,1_1_7_0,NA,form submission,48236.82,390324,390318.86,390419.18,438656,438663,2020-05-25T19:16:21Z,,,,,,,,,,,,,,,,,,,,,,,,,,NA
a240f,Seq,flow.Sequence,1_1_7,NA,completion,48236.82,390323,390318.86,390419.18,438656,438673,2020-05-25T19:16:21Z,,,,,,,,,,,,,,,,,,,,,,,,,,NA
39ef7,Sit,html.Page,1_1_7_0,NA,form submission,35839,995462,995481,995522,1031361,1031362,2020-05-25T19:16:23Z,,,,,,,,,,,,,,,,,,,,,,,,,,NA
39ef7,Seq,flow.Sequence,1_1_7,NA,completion,35839,995461,995481,995522,1031361,1031362,2020-05-25T19:16:23Z,,,,,,,,,,,,,,,,,,,,,,,,,,NA
bb763,Sit,html.Page,1_1_4_0,NA,form submission,22871.108999956,450253.7,450257.046,450273.791,473144.89999996,473145.29999997,2020-05-25T19:16:24Z,,,,,,,,,,,,,,,,,,,,,,,,,,NA
bb763,Seq,flow.Sequence,1_1_4,NA,completion,22871.108999956,450253.60000005,450257.046,450273.791,473144.89999996,473145.80000006,2020-05-25T19:16:24Z,,,,,,,,,,,,,,,,,,,,,,,,,,NA
9cc40,Sit,html.Page,1_3_5_0,NA,form submission,19617,526971,526990,527035,546652,546653,2020-05-25T19:16:34Z,,,,,,,,,,,,,,,,,,,,,,,,,,NA
9cc40,Seq,flow.Sequence,1_3_5,NA,completion,19617,526971,526990,527035,546652,546654,2020-05-25T19:16:34Z,,,,,,,,,,,,,,,,,,,,,,,,,,NA
3fc06,Sit,html.Page,1_3_1_0,NA,form submission,33954,530494,530510,530541,564495,564496,2020-05-25T19:16:38Z,,,,,,,,,,,,,,,,,,,,,,,,,,NA
3fc06,Seq,flow.Sequence,1_3_1,NA,completion,33954,530494,530510,530541,564495,564497,2020-05-25T19:16:38Z,,,,,,,,,,,,,,,,,,,,,,,,,,NA
a240f,Sit,html.Page,1_1_8_0,NA,form submission,30348.06,438678,438678.46,438761.94,469110,469116,2020-05-25T19:16:51Z,,,,,,,,,,,,,,,,,,,,,,,,,,NA
a240f,Seq,flow.Sequence,1_1_8,NA,completion,30348.06,438677,438678.46,438761.94,469110,469125,2020-05-25T19:16:51Z,,,,,,,,,,,,,,,,,,,,,,,,,,NA
bb763,Sit,html.Page,1_1_5_0,NA,form submission,30375.562999955,473146.10000001,473147.203,473163.937,503539.49999996,503540.20000005,2020-05-25T19:16:54Z,,,,,,,,,,,,,,,,,,,,,,,,,,NA
bb763,Seq,flow.Sequence,1_1_5,NA,completion,30375.562999955,473145.99999995,473147.203,473163.937,503539.49999996,503540.90000002,2020-05-25T19:16:54Z,,,,,,,,,,,,,,,,,,,,,,,,,,NA
9cc40,Sit,html.Page,1_3_6_0,NA,form submission,25141,546656,546672,546715,571856,571857,2020-05-25T19:16:59Z,,,,,,,,,,,,,,,,,,,,,,,,,,NA
9cc40,Seq,flow.Sequence,1_3_6,NA,completion,25141,546655,546672,546715,571856,571857,2020-05-25T19:16:59Z,,,,,,,,,,,,,,,,,,,,,,,,,,NA
3fc06,Sit,html.Page,1_3_2_0,NA,form submission,29629,564498,564516,564549,594178,594179,2020-05-25T19:17:08Z,,,,,,,,,,,,,,,,,,,,,,,,,,NA
3fc06,Seq,flow.Sequence,1_3_2,NA,completion,29629,564498,564516,564549,594178,594180,2020-05-25T19:17:08Z,,,,,,,,,,,,,,,,,,,,,,,,,,NA
a240f,Sit,html.Page,1_1_9_0,NA,form submission,23928.98,469130,469126.6,469210.02,493139,493141,2020-05-25T19:17:15Z,,,,,,,,,,,,,,,,,,,,,,,,,,NA
a240f,Seq,flow.Sequence,1_1_9,NA,completion,23928.98,469127,469126.6,469210.02,493139,493144,2020-05-25T19:17:15Z,,,,,,,,,,,,,,,,,,,,,,,,,,NA
a240f,Loop1,flow.Loop,1_1,NA,completion,313152.02,179907,179903.38,179986.98,493139,493147,2020-05-25T19:17:15Z,,,,,,,,,,,,,,,,,,,,,,,,,,NA
9cc40,Sit,html.Page,1_3_7_0,NA,form submission,21103,571857,571875,571922,593025,593025,2020-05-25T19:17:20Z,,,,,,,,,,,,,,,,,,,,,,,,,,NA
9cc40,Seq,flow.Sequence,1_3_7,NA,completion,21103,571857,571875,571922,593025,593026,2020-05-25T19:17:20Z,,,,,,,,,,,,,,,,,,,,,,,,,,NA
a240f,Progress,html.Page,1_2,NA,form submission,5435.5,493153,493147.76,493164.5,498600,498602,2020-05-25T19:17:21Z,,,,,,,,,,,,,,,,,,,,,,,,,,NA
3fc06,Sit,html.Page,1_3_3_0,NA,form submission,15746,594181,594199,594230,609976,609977,2020-05-25T19:17:24Z,,,,,,,,,,,,,,,,,,,,,,,,,,NA
3fc06,Seq,flow.Sequence,1_3_3,NA,completion,15746,594181,594199,594230,609976,609978,2020-05-25T19:17:24Z,,,,,,,,,,,,,,,,,,,,,,,,,,NA
bb763,Sit,html.Page,1_1_6_0,NA,form submission,30259.288000021,503541.30000004,503537.344,503570.812,533830.10000002,533830.59999999,2020-05-25T19:17:25Z,,,,,,,,,,,,,,,,,,,,,,,,,,NA
bb763,Seq,flow.Sequence,1_1_6,NA,completion,30259.288000021,503541.10000003,503537.344,503570.812,533830.10000002,533831.29999996,2020-05-25T19:17:25Z,,,,,,,,,,,,,,,,,,,,,,,,,,NA
39ef7,Sit,html.Page,1_1_8_0,NA,form submission,71312,1031363,1031382,1031427,1102739,1102739,2020-05-25T19:17:34Z,,,,,,,,,,,,,,,,,,,,,,,,,,NA
39ef7,Seq,flow.Sequence,1_1_8,NA,completion,71312,1031363,1031382,1031427,1102739,1102740,2020-05-25T19:17:34Z,,,,,,,,,,,,,,,,,,,,,,,,,,NA
371f3,welcome,html.Page,0_0,NA,form submission,26356.525999999,3948.4999999986,3960.12,4009.874,30366.399999999,30370.599999995,2020-05-25T19:17:39Z,,,,,,,,,,,,,,,,,,,,,,,,,,NA
9cc40,Sit,html.Page,1_3_8_0,NA,form submission,22151,593026,593046,593092,615243,615244,2020-05-25T19:17:43Z,,,,,,,,,,,,,,,,,,,,,,,,,,NA
9cc40,Seq,flow.Sequence,1_3_8,NA,completion,22151,593026,593046,593092,615243,615245,2020-05-25T19:17:43Z,,,,,,,,,,,,,,,,,,,,,,,,,,NA
3fc06,Sit,html.Page,1_3_4_0,NA,form submission,22556,609979,609997,610030,632586,632588,2020-05-25T19:17:47Z,,,,,,,,,,,,,,,,,,,,,,,,,,NA
3fc06,Seq,flow.Sequence,1_3_4,NA,completion,22556,609979,609997,610030,632586,632589,2020-05-25T19:17:47Z,,,,,,,,,,,,,,,,,,,,,,,,,,NA
bb763,Sit,html.Page,1_1_7_0,NA,form submission,28354.139000051,533832.1,533823.975,533941.061,562295.20000005,562295.79999996,2020-05-25T19:17:53Z,,,,,,,,,,,,,,,,,,,,,,,,,,NA
bb763,Seq,flow.Sequence,1_1_7,NA,completion,28354.139000051,533831.49999997,533823.975,533941.061,562295.20000005,562296.30000005,2020-05-25T19:17:53Z,,,,,,,,,,,,,,,,,,,,,,,,,,NA
9cc40,Sit,html.Page,1_3_9_0,NA,form submission,15575,615245,615266,615313,630888,630888,2020-05-25T19:17:58Z,,,,,,,,,,,,,,,,,,,,,,,,,,NA
9cc40,Seq,flow.Sequence,1_3_9,NA,completion,15575,615245,615266,615313,630888,630888,2020-05-25T19:17:58Z,,,,,,,,,,,,,,,,,,,,,,,,,,NA
9cc40,Loop2,flow.Loop,1_3,NA,completion,250175,380641,380665,380713,630888,630889,2020-05-25T19:17:58Z,,,,,,,,,,,,,,,,,,,,,,,,,,NA
9cc40,Progress,html.Page,1_4,NA,form submission,6283,630889,630895,630909,637192,637193,2020-05-25T19:18:05Z,,,,,,,,,,,,,,,,,,,,,,,,,,NA
a240f,Sit,html.Page,1_3_0_0,NA,form submission,45520.4,498606,498606.44,498706.6,544227,544228,2020-05-25T19:18:06Z,,,,,,,,,,,,,,,,,,,,,,,,,,NA
a240f,Seq,flow.Sequence,1_3_0,NA,completion,45520.4,498605,498606.44,498706.6,544227,544232,2020-05-25T19:18:06Z,,,,,,,,,,,,,,,,,,,,,,,,,,NA
3fc06,Sit,html.Page,1_3_5_0,NA,form submission,20437,632589,632604,632636,653073,653073,2020-05-25T19:18:07Z,,,,,,,,,,,,,,,,,,,,,,,,,,NA
3fc06,Seq,flow.Sequence,1_3_5,NA,completion,20437,632589,632604,632636,653073,653074,2020-05-25T19:18:07Z,,,,,,,,,,,,,,,,,,,,,,,,,,NA
39ef7,Sit,html.Page,1_1_9_0,NA,form submission,33433,1102741,1102760,1102790,1136223,1136224,2020-05-25T19:18:08Z,,,,,,,,,,,,,,,,,,,,,,,,,,NA
39ef7,Seq,flow.Sequence,1_1_9,NA,completion,33433,1102741,1102760,1102790,1136223,1136226,2020-05-25T19:18:08Z,,,,,,,,,,,,,,,,,,,,,,,,,,NA
39ef7,Loop1,flow.Loop,1_1,NA,completion,550480,585688,585709,585743,1136223,1136227,2020-05-25T19:18:08Z,,,,,,,,,,,,,,,,,,,,,,,,,,NA
bb763,Sit,html.Page,1_1_8_0,NA,form submission,20361.730000011,562296.6,562303.122,562319.87,582681.60000001,582682.00000003,2020-05-25T19:18:14Z,,,,,,,,,,,,,,,,,,,,,,,,,,NA
bb763,Seq,flow.Sequence,1_1_8,NA,completion,20361.730000011,562296.50000005,562303.122,562319.87,582681.60000001,582682.5,2020-05-25T19:18:14Z,,,,,,,,,,,,,,,,,,,,,,,,,,NA
39ef7,Progress,html.Page,1_2,NA,form submission,10295,1136228,1136239,1136254,1146549,1146551,2020-05-25T19:18:18Z,,,,,,,,,,,,,,,,,,,,,,,,,,NA
371f3,dem,html.Page,0_1,NA,form submission,46207.352999997,30374.899999995,30340.214,30406.547,76613.899999997,76615.29999999,2020-05-25T19:18:26Z,,,,,,,,,,,,,,,,,,,,,,,,,,NA
9cc40,Sit,html.Page,1_5_0_0,NA,form submission,23384,637196,637223,637272,660656,660657,2020-05-25T19:18:28Z,,,,,,,,,,,,,,,,,,,,,,,,,,NA
9cc40,Seq,flow.Sequence,1_5_0,NA,completion,23384,637196,637223,637272,660656,660657,2020-05-25T19:18:28Z,,,,,,,,,,,,,,,,,,,,,,,,,,NA
3fc06,Sit,html.Page,1_3_6_0,NA,form submission,29742,653075,653093,653124,682866,682867,2020-05-25T19:18:37Z,,,,,,,,,,,,,,,,,,,,,,,,,,NA
3fc06,Seq,flow.Sequence,1_3_6,NA,completion,29742,653075,653093,653124,682866,682868,2020-05-25T19:18:37Z,,,,,,,,,,,,,,,,,,,,,,,,,,NA
bb763,Sit,html.Page,1_1_9_0,NA,form submission,25953.435999952,582682.90000001,582683.24,582699.964,608653.39999995,608653.90000003,2020-05-25T19:18:39Z,,,,,,,,,,,,,,,,,,,,,,,,,,NA
bb763,Seq,flow.Sequence,1_1_9,NA,completion,25953.435999952,582682.90000001,582683.24,582699.964,608653.39999995,608654.4,2020-05-25T19:18:39Z,,,,,,,,,,,,,,,,,,,,,,,,,,NA
bb763,Loop1,flow.Loop,1_1,NA,completion,315204.95299995,293397.60000003,293398.231,293448.447,608653.39999995,608654.89999996,2020-05-25T19:18:39Z,,,,,,,,,,,,,,,,,,,,,,,,,,NA
9cc40,Sit,html.Page,1_5_1_0,NA,form submission,11473,660658,660675,660720,672193,672194,2020-05-25T19:18:40Z,,,,,,,,,,,,,,,,,,,,,,,,,,NA
9cc40,Seq,flow.Sequence,1_5_1,NA,completion,11473,660657,660675,660720,672193,672194,2020-05-25T19:18:40Z,,,,,,,,,,,,,,,,,,,,,,,,,,NA
bb763,Progress,html.Page,1_2,NA,form submission,4430.6239999732,608655.20000004,608651.341,608668.076,613098.69999997,613099.00000005,2020-05-25T19:18:44Z,,,,,,,,,,,,,,,,,,,,,,,,,,NA
a240f,Sit,html.Page,1_3_1_0,NA,form submission,48189.76,544235,544228.42,544345.24,592535,592545,2020-05-25T19:18:54Z,,,,,,,,,,,,,,,,,,,,,,,,,,NA
a240f,Seq,flow.Sequence,1_3_1,NA,completion,48189.76,544235,544228.42,544345.24,592535,592549,2020-05-25T19:18:54Z,,,,,,,,,,,,,,,,,,,,,,,,,,NA
9cc40,Sit,html.Page,1_5_2_0,NA,form submission,14107,672195,672214,672258,686365,686365,2020-05-25T19:18:54Z,,,,,,,,,,,,,,,,,,,,,,,,,,NA
9cc40,Seq,flow.Sequence,1_5_2,NA,completion,14107,672195,672214,672258,686365,686366,2020-05-25T19:18:54Z,,,,,,,,,,,,,,,,,,,,,,,,,,NA
f571e,welcome,html.Page,0_0,NA,form submission,40867,2472,2503,2515,43382,43384,2020-05-25T19:18:56Z,,,,,,,,,,,,,,,,,,,,,,,,,,NA
371f3,BFI-10,html.Page,0_2,NA,form submission,37784.494000001,76616.299999994,76583.567,76666.506,114451,114453.89999999,2020-05-25T19:19:03Z,,,,,,,,,,,,,,,,,,,,,,,,,,NA
371f3,Dem,flow.Sequence,0,NA,completion,110441.126,3948.3999999939,3960.12,4009.874,114451,114465.4,2020-05-25T19:19:03Z,,,,,,,,,,,,,,,,,,,,,,,,,,NA
bb763,Sit,html.Page,1_3_0_0,NA,form submission,23225.38000006,613099.70000002,613102.285,613119.02,636344.40000006,636345.10000004,2020-05-25T19:19:07Z,,,,,,,,,,,,,,,,,,,,,,,,,,NA
bb763,Seq,flow.Sequence,1_3_0,NA,completion,23225.38000006,613099.50000001,613102.285,613119.02,636344.40000006,636345.6,2020-05-25T19:19:07Z,,,,,,,,,,,,,,,,,,,,,,,,,,NA
3fc06,Sit,html.Page,1_3_7_0,NA,form submission,30765,682869,682885,682918,713683,713684,2020-05-25T19:19:08Z,,,,,,,,,,,,,,,,,,,,,,,,,,NA
3fc06,Seq,flow.Sequence,1_3_7,NA,completion,30765,682869,682885,682918,713683,713685,2020-05-25T19:19:08Z,,,,,,,,,,,,,,,,,,,,,,,,,,NA
39ef7,Sit,html.Page,1_3_0_0,NA,form submission,57219,1146552,1146570,1146607,1203826,1203827,2020-05-25T19:19:16Z,,,,,,,,,,,,,,,,,,,,,,,,,,NA
39ef7,Seq,flow.Sequence,1_3_0,NA,completion,57219,1146552,1146570,1146607,1203826,1203828,2020-05-25T19:19:16Z,,,,,,,,,,,,,,,,,,,,,,,,,,NA
a240f,Sit,html.Page,1_3_2_0,NA,form submission,22475.88,592553,592554.66,592638.12,615114,615115,2020-05-25T19:19:17Z,,,,,,,,,,,,,,,,,,,,,,,,,,NA
a240f,Seq,flow.Sequence,1_3_2,NA,completion,22475.88,592552,592554.66,592638.12,615114,615117,2020-05-25T19:19:17Z,,,,,,,,,,,,,,,,,,,,,,,,,,NA
9cc40,Sit,html.Page,1_5_3_0,NA,form submission,26682,686366,686386,686429,713111,713111,2020-05-25T19:19:20Z,,,,,,,,,,,,,,,,,,,,,,,,,,NA
9cc40,Seq,flow.Sequence,1_5_3,NA,completion,26682,686366,686386,686429,713111,713112,2020-05-25T19:19:20Z,,,,,,,,,,,,,,,,,,,,,,,,,,NA
bb763,Sit,html.Page,1_3_1_0,NA,form submission,15388.661000039,636345.89999996,636342.132,636375.639,651764.30000004,651764.8,2020-05-25T19:19:23Z,,,,,,,,,,,,,,,,,,,,,,,,,,NA
bb763,Seq,flow.Sequence,1_3_1,NA,completion,15388.661000039,636345.89999996,636342.132,636375.639,651764.30000004,651765.29999997,2020-05-25T19:19:23Z,,,,,,,,,,,,,,,,,,,,,,,,,,NA
3fc06,Sit,html.Page,1_3_8_0,NA,form submission,18777,713686,713702,713735,732512,732513,2020-05-25T19:19:26Z,,,,,,,,,,,,,,,,,,,,,,,,,,NA
3fc06,Seq,flow.Sequence,1_3_8,NA,completion,18777,713686,713702,713735,732512,732514,2020-05-25T19:19:26Z,,,,,,,,,,,,,,,,,,,,,,,,,,NA
9cc40,Sit,html.Page,1_5_4_0,NA,form submission,14427,713112,713132,713176,727603,727604,2020-05-25T19:19:35Z,,,,,,,,,,,,,,,,,,,,,,,,,,NA
9cc40,Seq,flow.Sequence,1_5_4,NA,completion,14427,713112,713132,713176,727603,727605,2020-05-25T19:19:35Z,,,,,,,,,,,,,,,,,,,,,,,,,,NA
a240f,Sit,html.Page,1_3_3_0,NA,form submission,22468.94,615119,615123.62,615207.06,637676,637677,2020-05-25T19:19:40Z,,,,,,,,,,,,,,,,,,,,,,,,,,NA
a240f,Seq,flow.Sequence,1_3_3,NA,completion,22468.94,615118,615123.62,615207.06,637676,637680,2020-05-25T19:19:40Z,,,,,,,,,,,,,,,,,,,,,,,,,,NA
f571e,dem,html.Page,0_1,NA,form submission,44080,43385,43410,43411,87491,87491,2020-05-25T19:19:41Z,,,,,,,,,,,,,,,,,,,,,,,,,,NA
bb763,Sit,html.Page,1_3_2_0,NA,form submission,21873.759999957,651765.60000004,651767.906,651784.64,673658.39999996,673658.90000004,2020-05-25T19:19:44Z,,,,,,,,,,,,,,,,,,,,,,,,,,NA
bb763,Seq,flow.Sequence,1_3_2,NA,completion,21873.759999957,651765.60000004,651767.906,651784.64,673658.39999996,673659.49999995,2020-05-25T19:19:44Z,,,,,,,,,,,,,,,,,,,,,,,,,,NA
371f3,SitIntro,html.Page,1_0,NA,form submission,45838.595000003,114467.09999999,114416.507,114499.405,160338,160338.9,2020-05-25T19:19:49Z,,,,,,,,,,,,,,,,,,,,,,,,,,NA
bb763,Sit,html.Page,1_3_3_0,NA,form submission,15434.728000002,673659.89999997,673654.356,673687.872,689122.6,689123.09999997,2020-05-25T19:20:00Z,,,,,,,,,,,,,,,,,,,,,,,,,,NA
bb763,Seq,flow.Sequence,1_3_3,NA,completion,15434.728000002,673659.60000001,673654.356,673687.872,689122.6,689123.90000001,2020-05-25T19:20:00Z,,,,,,,,,,,,,,,,,,,,,,,,,,NA
a240f,Sit,html.Page,1_3_4_0,NA,form submission,29966.08,637681,637676.58,637775.92,667742,667745,2020-05-25T19:20:10Z,,,,,,,,,,,,,,,,,,,,,,,,,,NA
a240f,Seq,flow.Sequence,1_3_4,NA,completion,29966.08,637681,637676.58,637775.92,667742,667747,2020-05-25T19:20:10Z,,,,,,,,,,,,,,,,,,,,,,,,,,NA
3fc06,Sit,html.Page,1_3_9_0,NA,form submission,43535,732515,732532,732562,776097,776098,2020-05-25T19:20:10Z,,,,,,,,,,,,,,,,,,,,,,,,,,NA
3fc06,Seq,flow.Sequence,1_3_9,NA,completion,43535,732515,732532,732562,776097,776099,2020-05-25T19:20:10Z,,,,,,,,,,,,,,,,,,,,,,,,,,NA
3fc06,Loop2,flow.Loop,1_3,NA,completion,285083,490960,490964,491014,776097,776100,2020-05-25T19:20:10Z,,,,,,,,,,,,,,,,,,,,,,,,,,NA
3fc06,Progress,html.Page,1_4,NA,form submission,2814.0000000001,776101,776107,776116,778930,778931,2020-05-25T19:20:13Z,,,,,,,,,,,,,,,,,,,,,,,,,,NA
9cc40,Sit,html.Page,1_5_5_0,NA,form submission,43033,727606,727630,727673,770706,770707,2020-05-25T19:20:18Z,,,,,,,,,,,,,,,,,,,,,,,,,,NA
9cc40,Seq,flow.Sequence,1_5_5,NA,completion,43033,727606,727630,727673,770706,770707,2020-05-25T19:20:18Z,,,,,,,,,,,,,,,,,,,,,,,,,,NA
39ef7,Sit,html.Page,1_3_1_0,NA,form submission,64810,1203829,1203859,1203890,1268700,1268706,2020-05-25T19:20:20Z,,,,,,,,,,,,,,,,,,,,,,,,,,NA
39ef7,Seq,flow.Sequence,1_3_1,NA,completion,64810,1203829,1203859,1203890,1268700,1268707,2020-05-25T19:20:20Z,,,,,,,,,,,,,,,,,,,,,,,,,,NA
bb763,Sit,html.Page,1_3_4_0,NA,form submission,22343.286000035,689124.19999996,689129.68,689146.414,711489.70000003,711490.2,2020-05-25T19:20:22Z,,,,,,,,,,,,,,,,,,,,,,,,,,NA
bb763,Seq,flow.Sequence,1_3_4,NA,completion,22343.286000035,689124.10000002,689129.68,689146.414,711489.70000003,711490.69999997,2020-05-25T19:20:22Z,,,,,,,,,,,,,,,,,,,,,,,,,,NA
a240f,Sit,html.Page,1_3_5_0,NA,form submission,20687.18,667748,667756.6,667856.82,688544,688545,2020-05-25T19:20:30Z,,,,,,,,,,,,,,,,,,,,,,,,,,NA
a240f,Seq,flow.Sequence,1_3_5,NA,completion,20687.18,667748,667756.6,667856.82,688544,688547,2020-05-25T19:20:30Z,,,,,,,,,,,,,,,,,,,,,,,,,,NA
bb763,Sit,html.Page,1_3_5_0,NA,form submission,18659.082000013,711491.09999998,711486.643,711520.118,730179.20000001,730180.1,2020-05-25T19:20:41Z,,,,,,,,,,,,,,,,,,,,,,,,,,NA
bb763,Seq,flow.Sequence,1_3_5,NA,completion,18659.082000013,711491.00000004,711486.643,711520.118,730179.20000001,730180.59999996,2020-05-25T19:20:41Z,,,,,,,,,,,,,,,,,,,,,,,,,,NA
3fc06,Sit,html.Page,1_5_0_0,NA,form submission,31098,778932,778936,778991,810089,810090,2020-05-25T19:20:44Z,,,,,,,,,,,,,,,,,,,,,,,,,,NA
3fc06,Seq,flow.Sequence,1_5_0,NA,completion,31098,778932,778936,778991,810089,810091,2020-05-25T19:20:44Z,,,,,,,,,,,,,,,,,,,,,,,,,,NA
9cc40,Sit,html.Page,1_5_6_0,NA,form submission,26999,770707,770724,770756,797755,797756,2020-05-25T19:20:45Z,,,,,,,,,,,,,,,,,,,,,,,,,,NA
9cc40,Seq,flow.Sequence,1_5_6,NA,completion,26999,770707,770724,770756,797755,797756,2020-05-25T19:20:45Z,,,,,,,,,,,,,,,,,,,,,,,,,,NA
af22b,welcome,html.Page,0_0,NA,form submission,30528.478999997,1470.1999999961,1474.822,1508.221,32036.699999997,32038.6,2020-05-25T19:20:47Z,,,,,,,,,,,,,,,,,,,,,,,,,,NA
371f3,Sit,html.Page,1_1_0_0,NA,form submission,63787.671999993,160340,160343.574,160392.628,224180.29999999,224184.4,2020-05-25T19:20:53Z,,,,,,,,,,,,,,,,,,,,,,,,,,NA
371f3,Seq,flow.Sequence,1_1_0,NA,completion,63787.671999993,160339.89999999,160343.574,160392.628,224180.29999999,224189.1,2020-05-25T19:20:53Z,,,,,,,,,,,,,,,,,,,,,,,,,,NA
a240f,Sit,html.Page,1_3_6_0,NA,form submission,25358.4,688549,688556.06,688639.6,713998,714001,2020-05-25T19:20:56Z,,,,,,,,,,,,,,,,,,,,,,,,,,NA
a240f,Seq,flow.Sequence,1_3_6,NA,completion,25358.4,688549,688556.06,688639.6,713998,714003,2020-05-25T19:20:56Z,,,,,,,,,,,,,,,,,,,,,,,,,,NA
9cc40,Sit,html.Page,1_5_7_0,NA,form submission,16953,797757,797776,797822,814775,814775,2020-05-25T19:21:02Z,,,,,,,,,,,,,,,,,,,,,,,,,,NA
9cc40,Seq,flow.Sequence,1_5_7,NA,completion,16953,797756,797776,797822,814775,814776,2020-05-25T19:21:02Z,,,,,,,,,,,,,,,,,,,,,,,,,,NA
bb763,Sit,html.Page,1_3_6_0,NA,form submission,23184.253000035,730180.90000004,730178.499,730295.647,753479.90000003,753480.4,2020-05-25T19:21:04Z,,,,,,,,,,,,,,,,,,,,,,,,,,NA
bb763,Seq,flow.Sequence,1_3_6,NA,completion,23184.253000035,730180.79999997,730178.499,730295.647,753479.90000003,753480.80000002,2020-05-25T19:21:04Z,,,,,,,,,,,,,,,,,,,,,,,,,,NA
f571e,BFI-10,html.Page,0_2,NA,form submission,84343,87492,87499,87553,171896,171907,2020-05-25T19:21:05Z,,,,,,,,,,,,,,,,,,,,,,,,,,NA
f571e,Dem,flow.Sequence,0,NA,completion,169381,2472,2503,2515,171896,171914,2020-05-25T19:21:05Z,,,,,,,,,,,,,,,,,,,,,,,,,,NA
39ef7,Sit,html.Page,1_3_2_0,NA,form submission,47272,1268707,1268724,1268758,1316030,1316030,2020-05-25T19:21:08Z,,,,,,,,,,,,,,,,,,,,,,,,,,NA
39ef7,Seq,flow.Sequence,1_3_2,NA,completion,47272,1268707,1268724,1268758,1316030,1316031,2020-05-25T19:21:08Z,,,,,,,,,,,,,,,,,,,,,,,,,,NA
3fc06,Sit,html.Page,1_5_1_0,NA,form submission,26970,810092,810108,810141,837111,837112,2020-05-25T19:21:11Z,,,,,,,,,,,,,,,,,,,,,,,,,,NA
3fc06,Seq,flow.Sequence,1_5_1,NA,completion,26970,810092,810108,810141,837111,837113,2020-05-25T19:21:11Z,,,,,,,,,,,,,,,,,,,,,,,,,,NA
a240f,Sit,html.Page,1_3_7_0,NA,form submission,16808.24,714005,713997.24,714079.76,730888,730890,2020-05-25T19:21:13Z,,,,,,,,,,,,,,,,,,,,,,,,,,NA
a240f,Seq,flow.Sequence,1_3_7,NA,completion,16808.24,714004,713997.24,714079.76,730888,730893,2020-05-25T19:21:13Z,,,,,,,,,,,,,,,,,,,,,,,,,,NA
9cc40,Sit,html.Page,1_5_8_0,NA,form submission,15034,814776,814795,814841,829875,829875,2020-05-25T19:21:17Z,,,,,,,,,,,,,,,,,,,,,,,,,,NA
9cc40,Seq,flow.Sequence,1_5_8,NA,completion,15034,814776,814795,814841,829875,829876,2020-05-25T19:21:17Z,,,,,,,,,,,,,,,,,,,,,,,,,,NA
bb763,Sit,html.Page,1_3_7_0,NA,form submission,17471.11999998,753481.09999998,753488.422,753505.18,770976.29999998,770976.90000001,2020-05-25T19:21:22Z,,,,,,,,,,,,,,,,,,,,,,,,,,NA
bb763,Seq,flow.Sequence,1_3_7,NA,completion,17471.11999998,753481.09999998,753488.422,753505.18,770976.29999998,770977.30000003,2020-05-25T19:21:22Z,,,,,,,,,,,,,,,,,,,,,,,,,,NA
3fc06,Sit,html.Page,1_5_2_0,NA,form submission,19595,837114,837130,837160,856755,856756,2020-05-25T19:21:31Z,,,,,,,,,,,,,,,,,,,,,,,,,,NA
3fc06,Seq,flow.Sequence,1_5_2,NA,completion,19595,837114,837130,837160,856755,856758,2020-05-25T19:21:31Z,,,,,,,,,,,,,,,,,,,,,,,,,,NA
a240f,Sit,html.Page,1_3_8_0,NA,form submission,19692.28,730897,730889.62,730989.72,750682,750688,2020-05-25T19:21:33Z,,,,,,,,,,,,,,,,,,,,,,,,,,NA
a240f,Seq,flow.Sequence,1_3_8,NA,completion,19692.28,730897,730889.62,730989.72,750682,750697,2020-05-25T19:21:33Z,,,,,,,,,,,,,,,,,,,,,,,,,,NA
9cc40,Sit,html.Page,1_5_9_0,NA,form submission,16171,829876,829895,829940,846111,846112,2020-05-25T19:21:33Z,,,,,,,,,,,,,,,,,,,,,,,,,,NA
9cc40,Seq,flow.Sequence,1_5_9,NA,completion,16171,829876,829895,829940,846111,846112,2020-05-25T19:21:33Z,,,,,,,,,,,,,,,,,,,,,,,,,,NA
9cc40,Loop3,flow.Loop,1_5,NA,completion,208839,637195,637223,637272,846111,846113,2020-05-25T19:21:33Z,,,,,,,,,,,,,,,,,,,,,,,,,,NA
9cc40,Risk_assessment,flow.Sequence,1,NA,completion,752849,93235,93251,93262,846111,846117,2020-05-25T19:21:33Z,,,,,,,,,,,,,,,,,,,,,,,,,,NA
371f3,Sit,html.Page,1_1_1_0,NA,form submission,42522.123000004,224191.29999999,224144.026,224276.677,266798.8,266799.9,2020-05-25T19:21:36Z,,,,,,,,,,,,,,,,,,,,,,,,,,NA
371f3,Seq,flow.Sequence,1_1_1,NA,completion,42522.123000004,224190.9,224144.026,224276.677,266798.8,266800.9,2020-05-25T19:21:36Z,,,,,,,,,,,,,,,,,,,,,,,,,,NA
af22b,dem,html.Page,0_1,NA,form submission,49769.445999997,32039.499999999,32019.536,32069.654,81839.099999997,81840.100000001,2020-05-25T19:21:37Z,,,,,,,,,,,,,,,,,,,,,,,,,,NA
f571e,SitIntro,html.Page,1_0,NA,form submission,31615,171918,171937,171954,203569,203571,2020-05-25T19:21:37Z,,,,,,,,,,,,,,,,,,,,,,,,,,NA
bb763,Sit,html.Page,1_3_8_0,NA,form submission,22500.658999983,770977.70000005,770972.837,771006.341,793506.99999998,793507.60000001,2020-05-25T19:21:44Z,,,,,,,,,,,,,,,,,,,,,,,,,,NA
bb763,Seq,flow.Sequence,1_3_8,NA,completion,22500.658999983,770977.59999998,770972.837,771006.341,793506.99999998,793508.20000004,2020-05-25T19:21:44Z,,,,,,,,,,,,,,,,,,,,,,,,,,NA
39ef7,Sit,html.Page,1_3_3_0,NA,form submission,37971,1316032,1316050,1316093,1354064,1354065,2020-05-25T19:21:46Z,,,,,,,,,,,,,,,,,,,,,,,,,,NA
39ef7,Seq,flow.Sequence,1_3_3,NA,completion,37971,1316031,1316050,1316093,1354064,1354066,2020-05-25T19:21:46Z,,,,,,,,,,,,,,,,,,,,,,,,,,NA
3fc06,Sit,html.Page,1_5_3_0,NA,form submission,22628,856759,856776,856805,879433,879435,2020-05-25T19:21:53Z,,,,,,,,,,,,,,,,,,,,,,,,,,NA
3fc06,Seq,flow.Sequence,1_5_3,NA,completion,22628,856759,856776,856805,879433,879436,2020-05-25T19:21:53Z,,,,,,,,,,,,,,,,,,,,,,,,,,NA
9cc40,vp,html.Page,2_0_0,NA,form submission,25412,846119,846130,846145,871557,871560,2020-05-25T19:21:59Z,,,,,,,,,,,,,,,,,,,,,,,,,,static/4.jpeg
9cc40,loop,flow.Loop,2_0,NA,completion,25412,846118,846130,846145,871557,871561,2020-05-25T19:21:59Z,,,,,,,,,,,,,,,,,,,,,,,,,,NA
a240f,Sit,html.Page,1_3_9_0,NA,form submission,29142.34,750702,750704.32,750787.66,779930,779934,2020-05-25T19:22:02Z,,,,,,,,,,,,,,,,,,,,,,,,,,NA
a240f,Seq,flow.Sequence,1_3_9,NA,completion,29142.34,750700,750704.32,750787.66,779930,779938,2020-05-25T19:22:02Z,,,,,,,,,,,,,,,,,,,,,,,,,,NA
a240f,Loop2,flow.Loop,1_3,NA,completion,281223.4,498604,498606.44,498706.6,779930,779941,2020-05-25T19:22:02Z,,,,,,,,,,,,,,,,,,,,,,,,,,NA
a240f,Progress,html.Page,1_4,NA,form submission,3223.7,779945,779933.52,779950.3,783174,783177,2020-05-25T19:22:05Z,,,,,,,,,,,,,,,,,,,,,,,,,,NA
371f3,Sit,html.Page,1_1_2_0,NA,form submission,33978.809999995,266801.59999999,266774.582,266857.49,300836.3,300837.4,2020-05-25T19:22:10Z,,,,,,,,,,,,,,,,,,,,,,,,,,NA
371f3,Seq,flow.Sequence,1_1_2,NA,completion,33978.809999995,266801.5,266774.582,266857.49,300836.3,300838.5,2020-05-25T19:22:10Z,,,,,,,,,,,,,,,,,,,,,,,,,,NA
39ef7,Sit,html.Page,1_3_4_0,NA,form submission,24574,1354066,1354088,1354125,1378699,1378700,2020-05-25T19:22:10Z,,,,,,,,,,,,,,,,,,,,,,,,,,NA
39ef7,Seq,flow.Sequence,1_3_4,NA,completion,24574,1354066,1354088,1354125,1378699,1378701,2020-05-25T19:22:10Z,,,,,,,,,,,,,,,,,,,,,,,,,,NA
3fc06,Sit,html.Page,1_5_4_0,NA,form submission,16117,879437,879452,879485,895602,895603,2020-05-25T19:22:10Z,,,,,,,,,,,,,,,,,,,,,,,,,,NA
3fc06,Seq,flow.Sequence,1_5_4,NA,completion,16117,879437,879452,879485,895602,895605,2020-05-25T19:22:10Z,,,,,,,,,,,,,,,,,,,,,,,,,,NA
bb763,Sit,html.Page,1_3_9_0,NA,form submission,28498.002999992,793508.5,793512.062,793528.797,822026.79999999,822027.29999996,2020-05-25T19:22:13Z,,,,,,,,,,,,,,,,,,,,,,,,,,NA
bb763,Seq,flow.Sequence,1_3_9,NA,completion,28498.002999992,793508.29999999,793512.062,793528.797,822026.79999999,822027.89999999,2020-05-25T19:22:13Z,,,,,,,,,,,,,,,,,,,,,,,,,,NA
bb763,Loop2,flow.Loop,1_3,NA,completion,208907.77999999,613099.39999995,613102.285,613119.02,822026.79999999,822028.20000006,2020-05-25T19:22:13Z,,,,,,,,,,,,,,,,,,,,,,,,,,NA
bb763,Progress,html.Page,1_4,NA,form submission,1091.5050000403,822028.50000001,822024.93,822041.695,823133.20000004,823133.79999995,2020-05-25T19:22:14Z,,,,,,,,,,,,,,,,,,,,,,,,,,NA
f571e,Sit,html.Page,1_1_0_0,NA,form submission,48056,203577,203584,203625,251681,251682,2020-05-25T19:22:25Z,,,,,,,,,,,,,,,,,,,,,,,,,,NA
f571e,Seq,flow.Sequence,1_1_0,NA,completion,48056,203574,203584,203625,251681,251683,2020-05-25T19:22:25Z,,,,,,,,,,,,,,,,,,,,,,,,,,NA
a240f,Sit,html.Page,1_5_0_0,NA,form submission,25063.74,783180,783172.08,783272.26,808336,808342,2020-05-25T19:22:30Z,,,,,,,,,,,,,,,,,,,,,,,,,,NA
a240f,Seq,flow.Sequence,1_5_0,NA,completion,25063.74,783179,783172.08,783272.26,808336,808354,2020-05-25T19:22:30Z,,,,,,,,,,,,,,,,,,,,,,,,,,NA
3fc06,Sit,html.Page,1_5_5_0,NA,form submission,22842,895605,895623,895653,918495,918496,2020-05-25T19:22:32Z,,,,,,,,,,,,,,,,,,,,,,,,,,NA
3fc06,Seq,flow.Sequence,1_5_5,NA,completion,22842,895605,895623,895653,918495,918497,2020-05-25T19:22:32Z,,,,,,,,,,,,,,,,,,,,,,,,,,NA
bb763,Sit,html.Page,1_5_0_0,NA,form submission,23301.928000011,823134.39999998,823146.014,823162.772,846464.70000001,846465.19999998,2020-05-25T19:22:37Z,,,,,,,,,,,,,,,,,,,,,,,,,,NA
bb763,Seq,flow.Sequence,1_5_0,NA,completion,23301.928000011,823134.30000003,823146.014,823162.772,846464.70000001,846465.80000001,2020-05-25T19:22:37Z,,,,,,,,,,,,,,,,,,,,,,,,,,NA
af22b,BFI-10,html.Page,0_2,NA,form submission,60003.393999995,81840.899999996,81826.917,81877.006,141880.39999999,141881.49999999,2020-05-25T19:22:37Z,,,,,,,,,,,,,,,,,,,,,,,,,,NA
af22b,Dem,flow.Sequence,0,NA,completion,140372.17899999,1470.0999999914,1474.822,1508.221,141880.39999999,141887.69999999,2020-05-25T19:22:37Z,,,,,,,,,,,,,,,,,,,,,,,,,,NA
39ef7,Sit,html.Page,1_3_5_0,NA,form submission,36810,1378701,1378721,1378761,1415571,1415572,2020-05-25T19:22:47Z,,,,,,,,,,,,,,,,,,,,,,,,,,NA
39ef7,Seq,flow.Sequence,1_3_5,NA,completion,36810,1378701,1378721,1378761,1415571,1415573,2020-05-25T19:22:47Z,,,,,,,,,,,,,,,,,,,,,,,,,,NA
3fc06,Sit,html.Page,1_5_6_0,NA,form submission,19993,918498,918515,918546,938539,938540,2020-05-25T19:22:52Z,,,,,,,,,,,,,,,,,,,,,,,,,,NA
3fc06,Seq,flow.Sequence,1_5_6,NA,completion,19993,918498,918515,918546,938539,938542,2020-05-25T19:22:52Z,,,,,,,,,,,,,,,,,,,,,,,,,,NA
a240f,Sit,html.Page,1_5_1_0,NA,form submission,23603.72,808360,808361.84,808445.28,832049,832053,2020-05-25T19:22:54Z,,,,,,,,,,,,,,,,,,,,,,,,,,NA
a240f,Seq,flow.Sequence,1_5_1,NA,completion,23603.72,808358,808361.84,808445.28,832049,832056,2020-05-25T19:22:54Z,,,,,,,,,,,,,,,,,,,,,,,,,,NA
371f3,Sit,html.Page,1_1_3_0,NA,form submission,47005.115000001,300839.2,300814.572,300897.485,347902.6,347904.4,2020-05-25T19:22:57Z,,,,,,,,,,,,,,,,,,,,,,,,,,NA
371f3,Seq,flow.Sequence,1_1_3,NA,completion,47005.115000001,300838.99999999,300814.572,300897.485,347902.6,347906.69999999,2020-05-25T19:22:57Z,,,,,,,,,,,,,,,,,,,,,,,,,,NA
f571e,Sit,html.Page,1_1_1_0,NA,form submission,37436,251685,251716,251726,289162,289164,2020-05-25T19:23:02Z,,,,,,,,,,,,,,,,,,,,,,,,,,NA
f571e,Seq,flow.Sequence,1_1_1,NA,completion,37436,251684,251716,251726,289162,289165,2020-05-25T19:23:02Z,,,,,,,,,,,,,,,,,,,,,,,,,,NA
bb763,Sit,html.Page,1_5_1_0,NA,form submission,29830.030000055,846466.09999996,846469.34,846486.07,876316.10000005,876316.69999997,2020-05-25T19:23:07Z,,,,,,,,,,,,,,,,,,,,,,,,,,NA
bb763,Seq,flow.Sequence,1_5_1,NA,completion,29830.030000055,846466.00000001,846469.34,846486.07,876316.10000005,876317.20000005,2020-05-25T19:23:07Z,,,,,,,,,,,,,,,,,,,,,,,,,,NA
a240f,Sit,html.Page,1_5_2_0,NA,form submission,16525.6,832059,832065.9,832149.4,848675,848679,2020-05-25T19:23:11Z,,,,,,,,,,,,,,,,,,,,,,,,,,NA
a240f,Seq,flow.Sequence,1_5_2,NA,completion,16525.6,832058,832065.9,832149.4,848675,848683,2020-05-25T19:23:11Z,,,,,,,,,,,,,,,,,,,,,,,,,,NA
af22b,SitIntro,html.Page,1_0,NA,form submission,39482.580000002,141888.5,141878.819,141895.52,181378.1,181378.79999999,2020-05-25T19:23:16Z,,,,,,,,,,,,,,,,,,,,,,,,,,NA
bb763,Sit,html.Page,1_5_2_0,NA,form submission,19332.901999994,876317.5,876319.409,876336.098,895668.99999999,895669.40000001,2020-05-25T19:23:27Z,,,,,,,,,,,,,,,,,,,,,,,,,,NA
bb763,Seq,flow.Sequence,1_5_2,NA,completion,19332.901999994,876317.5,876319.409,876336.098,895668.99999999,895670.00000004,2020-05-25T19:23:27Z,,,,,,,,,,,,,,,,,,,,,,,,,,NA
f571e,Sit,html.Page,1_1_2_0,NA,form submission,26753,289167,289179,289199,315952,315953,2020-05-25T19:23:29Z,,,,,,,,,,,,,,,,,,,,,,,,,,NA
f571e,Seq,flow.Sequence,1_1_2,NA,completion,26753,289166,289179,289199,315952,315954,2020-05-25T19:23:29Z,,,,,,,,,,,,,,,,,,,,,,,,,,NA
a240f,Sit,html.Page,1_5_3_0,NA,form submission,18044.42,848686,848692.08,848775.58,866820,866822,2020-05-25T19:23:29Z,,,,,,,,,,,,,,,,,,,,,,,,,,NA
a240f,Seq,flow.Sequence,1_5_3,NA,completion,18044.42,848685,848692.08,848775.58,866820,866824,2020-05-25T19:23:29Z,,,,,,,,,,,,,,,,,,,,,,,,,,NA
39ef7,Sit,html.Page,1_3_6_0,NA,form submission,43886,1415573,1415591,1415634,1459520,1459521,2020-05-25T19:23:31Z,,,,,,,,,,,,,,,,,,,,,,,,,,NA
39ef7,Seq,flow.Sequence,1_3_6,NA,completion,43886,1415573,1415591,1415634,1459520,1459522,2020-05-25T19:23:31Z,,,,,,,,,,,,,,,,,,,,,,,,,,NA
371f3,Sit,html.Page,1_1_4_0,NA,form submission,40502.251999992,347907.7,347870.748,347986.848,388489.09999999,388490.5,2020-05-25T19:23:37Z,,,,,,,,,,,,,,,,,,,,,,,,,,NA
371f3,Seq,flow.Sequence,1_1_4,NA,completion,40502.251999992,347907.5,347870.748,347986.848,388489.09999999,388492.19999999,2020-05-25T19:23:37Z,,,,,,,,,,,,,,,,,,,,,,,,,,NA
3fc06,Sit,html.Page,1_5_7_0,NA,form submission,46989,938543,938558,938588,985577,985579,2020-05-25T19:23:40Z,,,,,,,,,,,,,,,,,,,,,,,,,,NA
3fc06,Seq,flow.Sequence,1_5_7,NA,completion,46989,938543,938558,938588,985577,985580,2020-05-25T19:23:40Z,,,,,,,,,,,,,,,,,,,,,,,,,,NA
f571e,Sit,html.Page,1_1_3_0,NA,form submission,29668,315956,315986,315997,345665,345666,2020-05-25T19:23:59Z,,,,,,,,,,,,,,,,,,,,,,,,,,NA
f571e,Seq,flow.Sequence,1_1_3,NA,completion,29668,315956,315986,315997,345665,345668,2020-05-25T19:23:59Z,,,,,,,,,,,,,,,,,,,,,,,,,,NA
3fc06,Sit,html.Page,1_5_8_0,NA,form submission,20433,985581,985588,985626,1006059,1006060,2020-05-25T19:24:00Z,,,,,,,,,,,,,,,,,,,,,,,,,,NA
3fc06,Seq,flow.Sequence,1_5_8,NA,completion,20433,985581,985588,985626,1006059,1006061,2020-05-25T19:24:00Z,,,,,,,,,,,,,,,,,,,,,,,,,,NA
39ef7,Sit,html.Page,1_3_7_0,NA,form submission,39277,1459522,1459540,1459582,1498859,1498860,2020-05-25T19:24:11Z,,,,,,,,,,,,,,,,,,,,,,,,,,NA
39ef7,Seq,flow.Sequence,1_3_7,NA,completion,39277,1459522,1459540,1459582,1498859,1498861,2020-05-25T19:24:11Z,,,,,,,,,,,,,,,,,,,,,,,,,,NA
bb763,Sit,html.Page,1_5_3_0,NA,form submission,48979.941999966,895670.20000005,895664.783,895698.258,944678.19999997,944678.79999999,2020-05-25T19:24:16Z,,,,,,,,,,,,,,,,,,,,,,,,,,NA
bb763,Seq,flow.Sequence,1_5_3,NA,completion,48979.941999966,895670.20000005,895664.783,895698.258,944678.19999997,944679.29999996,2020-05-25T19:24:16Z,,,,,,,,,,,,,,,,,,,,,,,,,,NA
3fc06,Sit,html.Page,1_5_9_0,NA,form submission,18094,1006062,1006078,1006112,1024206,1024208,2020-05-25T19:24:18Z,,,,,,,,,,,,,,,,,,,,,,,,,,NA
3fc06,Seq,flow.Sequence,1_5_9,NA,completion,18094,1006061,1006078,1006112,1024206,1024208,2020-05-25T19:24:18Z,,,,,,,,,,,,,,,,,,,,,,,,,,NA
3fc06,Loop3,flow.Loop,1_5,NA,completion,245215,778932,778936,778991,1024206,1024209,2020-05-25T19:24:18Z,,,,,,,,,,,,,,,,,,,,,,,,,,NA
3fc06,Risk_assessment,flow.Sequence,1,NA,completion,909851,114328,114338,114355,1024206,1024211,2020-05-25T19:24:18Z,,,,,,,,,,,,,,,,,,,,,,,,,,NA
a240f,Sit,html.Page,1_5_4_0,NA,form submission,50508.16,866826,866820.74,866920.84,917429,917436,2020-05-25T19:24:19Z,,,,,,,,,,,,,,,,,,,,,,,,,,NA
a240f,Seq,flow.Sequence,1_5_4,NA,completion,50508.16,866825,866820.74,866920.84,917429,917446,2020-05-25T19:24:19Z,,,,,,,,,,,,,,,,,,,,,,,,,,NA
371f3,Sit,html.Page,1_1_5_0,NA,form submission,42924.558999991,388493.6,388475.738,388575.241,431499.79999999,431501,2020-05-25T19:24:20Z,,,,,,,,,,,,,,,,,,,,,,,,,,NA
371f3,Seq,flow.Sequence,1_1_5,NA,completion,42924.558999991,388493.3,388475.738,388575.241,431499.79999999,431502.5,2020-05-25T19:24:20Z,,,,,,,,,,,,,,,,,,,,,,,,,,NA
af22b,Sit,html.Page,1_1_0_0,NA,form submission,71718.238,181379.69999999,181378.483,181407.062,253125.3,253126.39999999,2020-05-25T19:24:28Z,,,,,,,,,,,,,,,,,,,,,,,,,,NA
af22b,Seq,flow.Sequence,1_1_0,NA,completion,71718.238,181379.5,181378.483,181407.062,253125.3,253127.59999999,2020-05-25T19:24:28Z,,,,,,,,,,,,,,,,,,,,,,,,,,NA
bb763,Sit,html.Page,1_5_4_0,NA,form submission,16443.424000011,944679.60000003,944675.306,944708.776,961152.20000001,961152.80000004,2020-05-25T19:24:32Z,,,,,,,,,,,,,,,,,,,,,,,,,,NA
bb763,Seq,flow.Sequence,1_5_4,NA,completion,16443.424000011,944679.49999997,944675.306,944708.776,961152.20000001,961153.20000006,2020-05-25T19:24:32Z,,,,,,,,,,,,,,,,,,,,,,,,,,NA
f571e,Sit,html.Page,1_1_4_0,NA,form submission,36930,345669,345684,345704,382634,382636,2020-05-25T19:24:36Z,,,,,,,,,,,,,,,,,,,,,,,,,,NA
f571e,Seq,flow.Sequence,1_1_4,NA,completion,36930,345669,345684,345704,382634,382637,2020-05-25T19:24:36Z,,,,,,,,,,,,,,,,,,,,,,,,,,NA
371f3,Sit,html.Page,1_1_6_0,NA,form submission,29008.653999998,431503.49999999,431484.716,431551.046,460559.7,460561,2020-05-25T19:24:50Z,,,,,,,,,,,,,,,,,,,,,,,,,,NA
371f3,Seq,flow.Sequence,1_1_6,NA,completion,29008.653999998,431503.3,431484.716,431551.046,460559.7,460562.1,2020-05-25T19:24:50Z,,,,,,,,,,,,,,,,,,,,,,,,,,NA
a240f,Sit,html.Page,1_5_5_0,NA,form submission,32098.3,917452,917450.6,917550.7,949649,949653,2020-05-25T19:24:52Z,,,,,,,,,,,,,,,,,,,,,,,,,,NA
a240f,Seq,flow.Sequence,1_5_5,NA,completion,32098.3,917450,917450.6,917550.7,949649,949657,2020-05-25T19:24:52Z,,,,,,,,,,,,,,,,,,,,,,,,,,NA
bb763,Sit,html.Page,1_5_5_0,NA,form submission,20510.153000039,961153.59999996,961158.176,961191.647,981701.80000004,981702.3,2020-05-25T19:24:53Z,,,,,,,,,,,,,,,,,,,,,,,,,,NA
bb763,Seq,flow.Sequence,1_5_5,NA,completion,20510.153000039,961153.39999995,961158.176,961191.647,981701.80000004,981702.79999997,2020-05-25T19:24:53Z,,,,,,,,,,,,,,,,,,,,,,,,,,NA
3fc06,vp,html.Page,2_0_0,NA,form submission,36070,1024212,1024222,1024231,1060301,1060302,2020-05-25T19:24:54Z,,,,,,,,,,,,,,,,,,,,,,,,,,static/5.jpeg
3fc06,loop,flow.Loop,2_0,NA,completion,36070,1024212,1024222,1024231,1060301,1060303,2020-05-25T19:24:54Z,,,,,,,,,,,,,,,,,,,,,,,,,,NA
39ef7,Sit,html.Page,1_3_8_0,NA,form submission,47183,1498861,1498879,1498915,1546098,1546098,2020-05-25T19:24:58Z,,,,,,,,,,,,,,,,,,,,,,,,,,NA
39ef7,Seq,flow.Sequence,1_3_8,NA,completion,47183,1498861,1498879,1498915,1546098,1546099,2020-05-25T19:24:58Z,,,,,,,,,,,,,,,,,,,,,,,,,,NA
f571e,Sit,html.Page,1_1_5_0,NA,form submission,26601,382639,382649,382669,409270,409271,2020-05-25T19:25:02Z,,,,,,,,,,,,,,,,,,,,,,,,,,NA
f571e,Seq,flow.Sequence,1_1_5,NA,completion,26601,382638,382649,382669,409270,409273,2020-05-25T19:25:02Z,,,,,,,,,,,,,,,,,,,,,,,,,,NA
a240f,Sit,html.Page,1_5_6_0,NA,form submission,15630.74,949660,949668.12,949768.26,965399,965401,2020-05-25T19:25:07Z,,,,,,,,,,,,,,,,,,,,,,,,,,NA
a240f,Seq,flow.Sequence,1_5_6,NA,completion,15630.74,949660,949668.12,949768.26,965399,965404,2020-05-25T19:25:07Z,,,,,,,,,,,,,,,,,,,,,,,,,,NA
af22b,Sit,html.Page,1_1_1_0,NA,form submission,46495.970999988,253128.19999999,253120.017,253170.129,299666.09999999,299667.09999999,2020-05-25T19:25:15Z,,,,,,,,,,,,,,,,,,,,,,,,,,NA
af22b,Seq,flow.Sequence,1_1_1,NA,completion,46495.970999988,253128.1,253120.017,253170.129,299666.09999999,299668.1,2020-05-25T19:25:15Z,,,,,,,,,,,,,,,,,,,,,,,,,,NA
bb763,Sit,html.Page,1_5_6_0,NA,form submission,26016.103000044,981702.99999998,981707.069,981723.797,1007739.9,1007740.4,2020-05-25T19:25:19Z,,,,,,,,,,,,,,,,,,,,,,,,,,NA
bb763,Seq,flow.Sequence,1_5_6,NA,completion,26016.103000044,981702.99999998,981707.069,981723.797,1007739.9,1007740.9,2020-05-25T19:25:19Z,,,,,,,,,,,,,,,,,,,,,,,,,,NA
371f3,Sit,html.Page,1_1_7_0,NA,form submission,30175.413000002,460563.2,460533.076,460615.987,490791.4,490794.2,2020-05-25T19:25:20Z,,,,,,,,,,,,,,,,,,,,,,,,,,NA
371f3,Seq,flow.Sequence,1_1_7,NA,completion,30175.413000002,460562.9,460533.076,460615.987,490791.4,490795.3,2020-05-25T19:25:20Z,,,,,,,,,,,,,,,,,,,,,,,,,,NA
a240f,Sit,html.Page,1_5_7_0,NA,form submission,17856.92,965406,965409.64,965493.08,983350,983356,2020-05-25T19:25:25Z,,,,,,,,,,,,,,,,,,,,,,,,,,NA
a240f,Seq,flow.Sequence,1_5_7,NA,completion,17856.92,965405,965409.64,965493.08,983350,983365,2020-05-25T19:25:25Z,,,,,,,,,,,,,,,,,,,,,,,,,,NA
f571e,Sit,html.Page,1_1_6_0,NA,form submission,26299,409274,409307,409318,435617,435618,2020-05-25T19:25:29Z,,,,,,,,,,,,,,,,,,,,,,,,,,NA
f571e,Seq,flow.Sequence,1_1_6,NA,completion,26299,409274,409307,409318,435617,435620,2020-05-25T19:25:29Z,,,,,,,,,,,,,,,,,,,,,,,,,,NA
bb763,Sit,html.Page,1_5_7_0,NA,form submission,19575.370000014,1007741.3,1007745.201,1007761.93,1027337.3,1027337.7,2020-05-25T19:25:38Z,,,,,,,,,,,,,,,,,,,,,,,,,,NA
bb763,Seq,flow.Sequence,1_5_7,NA,completion,19575.370000014,1007741.2,1007745.201,1007761.93,1027337.3,1027338.2,2020-05-25T19:25:38Z,,,,,,,,,,,,,,,,,,,,,,,,,,NA
a240f,Sit,html.Page,1_5_8_0,NA,form submission,17043.22,983371,983371.26,983454.78,1000498,1000502,2020-05-25T19:25:42Z,,,,,,,,,,,,,,,,,,,,,,,,,,NA
a240f,Seq,flow.Sequence,1_5_8,NA,completion,17043.22,983368,983371.26,983454.78,1000498,1000505,2020-05-25T19:25:42Z,,,,,,,,,,,,,,,,,,,,,,,,,,NA
af22b,Sit,html.Page,1_1_2_0,NA,form submission,29379.392999992,299668.8,299660.072,299710.207,329089.59999999,329090.49999999,2020-05-25T19:25:44Z,,,,,,,,,,,,,,,,,,,,,,,,,,NA
af22b,Seq,flow.Sequence,1_1_2,NA,completion,29379.392999992,299668.59999999,299660.072,299710.207,329089.59999999,329091.3,2020-05-25T19:25:44Z,,,,,,,,,,,,,,,,,,,,,,,,,,NA
371f3,Sit,html.Page,1_1_8_0,NA,form submission,25826.789999994,490796,490774.307,490857.21,516683.99999999,516684.8,2020-05-25T19:25:46Z,,,,,,,,,,,,,,,,,,,,,,,,,,NA
371f3,Seq,flow.Sequence,1_1_8,NA,completion,25826.789999994,490795.9,490774.307,490857.21,516683.99999999,516685.79999999,2020-05-25T19:25:46Z,,,,,,,,,,,,,,,,,,,,,,,,,,NA
f571e,Sit,html.Page,1_1_7_0,NA,form submission,32997,435622,435651,435659,468656,468657,2020-05-25T19:26:02Z,,,,,,,,,,,,,,,,,,,,,,,,,,NA
f571e,Seq,flow.Sequence,1_1_7,NA,completion,32997,435621,435651,435659,468656,468658,2020-05-25T19:26:02Z,,,,,,,,,,,,,,,,,,,,,,,,,,NA
a240f,Sit,html.Page,1_5_9_0,NA,form submission,21328.7,1000507,1000498.38,1000598.3,1021927,1021931,2020-05-25T19:26:04Z,,,,,,,,,,,,,,,,,,,,,,,,,,NA
a240f,Seq,flow.Sequence,1_5_9,NA,completion,21328.7,1000507,1000498.38,1000598.3,1021927,1021937,2020-05-25T19:26:04Z,,,,,,,,,,,,,,,,,,,,,,,,,,NA
a240f,Loop3,flow.Loop,1_5,NA,completion,238654.74,783179,783172.08,783272.26,1021927,1021939,2020-05-25T19:26:04Z,,,,,,,,,,,,,,,,,,,,,,,,,,NA
a240f,Risk_assessment,flow.Sequence,1,NA,completion,874691.62,147213,147218.36,147235.38,1021927,1021941,2020-05-25T19:26:04Z,,,,,,,,,,,,,,,,,,,,,,,,,,NA
bb763,Sit,html.Page,1_5_8_0,NA,form submission,32388.794000024,1027338.6,1027340.069,1027356.806,1059745.6,1059746.1,2020-05-25T19:26:11Z,,,,,,,,,,,,,,,,,,,,,,,,,,NA
bb763,Seq,flow.Sequence,1_5_8,NA,completion,32388.794000024,1027338.4,1027340.069,1027356.806,1059745.6,1059746.6,2020-05-25T19:26:11Z,,,,,,,,,,,,,,,,,,,,,,,,,,NA
371f3,Sit,html.Page,1_1_9_0,NA,form submission,28660.742999994,516686.39999999,516672.634,516738.957,545399.69999999000,545400.8,2020-05-25T19:26:14Z,,,,,,,,,,,,,,,,,,,,,,,,,,NA
371f3,Seq,flow.Sequence,1_1_9,NA,completion,28660.742999994,516686.2,516672.634,516738.957,545399.69999999000,545402.09999999,2020-05-25T19:26:14Z,,,,,,,,,,,,,,,,,,,,,,,,,,NA
371f3,Loop1,flow.Loop,1_1,NA,completion,385007.07199999,160339.7,160343.574,160392.628,545399.69999999000,545403.5,2020-05-25T19:26:14Z,,,,,,,,,,,,,,,,,,,,,,,,,,NA
371f3,Progress,html.Page,1_2,NA,form submission,5668.9409999956,545404.1,545372.234,545421.959,551090.9,551093.5,2020-05-25T19:26:20Z,,,,,,,,,,,,,,,,,,,,,,,,,,NA
af22b,Sit,html.Page,1_1_3_0,NA,form submission,43596.066999994,329091.9,329092.525,329125.933,372721.99999999,372722.89999999,2020-05-25T19:26:28Z,,,,,,,,,,,,,,,,,,,,,,,,,,NA
af22b,Seq,flow.Sequence,1_1_3,NA,completion,43596.066999994,329091.69999999,329092.525,329125.933,372721.99999999,372723.9,2020-05-25T19:26:28Z,,,,,,,,,,,,,,,,,,,,,,,,,,NA
f571e,Sit,html.Page,1_1_8_0,NA,form submission,27606,468659,468670,468690,496296,496297,2020-05-25T19:26:29Z,,,,,,,,,,,,,,,,,,,,,,,,,,NA
f571e,Seq,flow.Sequence,1_1_8,NA,completion,27606,468659,468670,468690,496296,496298,2020-05-25T19:26:29Z,,,,,,,,,,,,,,,,,,,,,,,,,,NA
bb763,Sit,html.Page,1_5_9_0,NA,form submission,28819.106999992,1059746.9,1059753.455,1059770.193,1088589.3,1088589.8,2020-05-25T19:26:39Z,,,,,,,,,,,,,,,,,,,,,,,,,,NA
bb763,Seq,flow.Sequence,1_5_9,NA,completion,28819.106999992,1059746.8,1059753.455,1059770.193,1088589.3,1088590.5,2020-05-25T19:26:39Z,,,,,,,,,,,,,,,,,,,,,,,,,,NA
bb763,Loop3,flow.Loop,1_5,NA,completion,265426.52799999,823134.19999997,823146.014,823162.772,1088589.3,1088590.7000001,2020-05-25T19:26:39Z,,,,,,,,,,,,,,,,,,,,,,,,,,NA
bb763,Risk_assessment,flow.Sequence,1,NA,completion,853014.62199999,235559.49999997,235557.943,235574.678,1088589.3,1088591.1,2020-05-25T19:26:39Z,,,,,,,,,,,,,,,,,,,,,,,,,,NA
f571e,Sit,html.Page,1_1_9_0,NA,form submission,33395,496299,496309,496328,529723,529725,2020-05-25T19:27:03Z,,,,,,,,,,,,,,,,,,,,,,,,,,NA
f571e,Seq,flow.Sequence,1_1_9,NA,completion,33395,496299,496309,496328,529723,529727,2020-05-25T19:27:03Z,,,,,,,,,,,,,,,,,,,,,,,,,,NA
f571e,Loop1,flow.Loop,1_1,NA,completion,326098,203573,203584,203625,529723,529727,2020-05-25T19:27:03Z,,,,,,,,,,,,,,,,,,,,,,,,,,NA
f571e,Progress,html.Page,1_2,NA,form submission,3282,529728,529735,529742,533024,533026,2020-05-25T19:27:06Z,,,,,,,,,,,,,,,,,,,,,,,,,,NA
af22b,Sit,html.Page,1_1_4_0,NA,form submission,42593.329999999,372724.5,372724.959,372758.37,415351.7,415352.69999999,2020-05-25T19:27:10Z,,,,,,,,,,,,,,,,,,,,,,,,,,NA
af22b,Seq,flow.Sequence,1_1_4,NA,completion,42593.329999999,372724.3,372724.959,372758.37,415351.7,415353.69999999,2020-05-25T19:27:10Z,,,,,,,,,,,,,,,,,,,,,,,,,,NA
371f3,Sit,html.Page,1_3_0_0,NA,form submission,57724.951999997,551096.1,551091.615,551191.048,608916,608917.8,2020-05-25T19:27:18Z,,,,,,,,,,,,,,,,,,,,,,,,,,NA
371f3,Seq,flow.Sequence,1_3_0,NA,completion,57724.951999997,551095.5,551091.615,551191.048,608916,608919.5,2020-05-25T19:27:18Z,,,,,,,,,,,,,,,,,,,,,,,,,,NA
f571e,Sit,html.Page,1_3_0_0,NA,form submission,23272,533029,533045,533054,556326,556330,2020-05-25T19:27:29Z,,,,,,,,,,,,,,,,,,,,,,,,,,NA
f571e,Seq,flow.Sequence,1_3_0,NA,completion,23272,533028,533045,533054,556326,556332,2020-05-25T19:27:29Z,,,,,,,,,,,,,,,,,,,,,,,,,,NA
371f3,Sit,html.Page,1_3_1_0,NA,form submission,22192.136999998,608920.7,608887.844,608987.363,631179.5,631181.3,2020-05-25T19:27:40Z,,,,,,,,,,,,,,,,,,,,,,,,,,NA
371f3,Seq,flow.Sequence,1_3_1,NA,completion,22192.136999998,608920.4,608887.844,608987.363,631179.5,631183.69999999000,2020-05-25T19:27:40Z,,,,,,,,,,,,,,,,,,,,,,,,,,NA
af22b,Sit,html.Page,1_1_5_0,NA,form submission,32770.258,415354.29999999,415355.031,415388.442,448158.7,448159.09999999,2020-05-25T19:27:43Z,,,,,,,,,,,,,,,,,,,,,,,,,,NA
af22b,Seq,flow.Sequence,1_1_5,NA,completion,32770.258,415354.2,415355.031,415388.442,448158.7,448159.39999999,2020-05-25T19:27:43Z,,,,,,,,,,,,,,,,,,,,,,,,,,NA
f571e,Sit,html.Page,1_3_1_0,NA,form submission,31220,556332,556363,556374,587594,587595,2020-05-25T19:28:01Z,,,,,,,,,,,,,,,,,,,,,,,,,,NA
f571e,Seq,flow.Sequence,1_3_1,NA,completion,31220,556332,556363,556374,587594,587596,2020-05-25T19:28:01Z,,,,,,,,,,,,,,,,,,,,,,,,,,NA
371f3,Sit,html.Page,1_3_2_0,NA,form submission,35418.632999999,631185.19999999000,631137.661,631270.367,666689,666690.6,2020-05-25T19:28:16Z,,,,,,,,,,,,,,,,,,,,,,,,,,NA
371f3,Seq,flow.Sequence,1_3_2,NA,completion,35418.632999999,631184.89999999,631137.661,631270.367,666689,666693.4,2020-05-25T19:28:16Z,,,,,,,,,,,,,,,,,,,,,,,,,,NA
f571e,Sit,html.Page,1_3_2_0,NA,form submission,28569,587598,587608,587628,616197,616199,2020-05-25T19:28:29Z,,,,,,,,,,,,,,,,,,,,,,,,,,NA
f571e,Seq,flow.Sequence,1_3_2,NA,completion,28569,587597,587608,587628,616197,616201,2020-05-25T19:28:29Z,,,,,,,,,,,,,,,,,,,,,,,,,,NA
af22b,Sit,html.Page,1_1_6_0,NA,form submission,51150.873000001,448159.69999999,448146.312,448179.727,499330.6,499331.5,2020-05-25T19:28:34Z,,,,,,,,,,,,,,,,,,,,,,,,,,NA
af22b,Seq,flow.Sequence,1_1_6,NA,completion,51150.873000001,448159.6,448146.312,448179.727,499330.6,499332.29999999,2020-05-25T19:28:34Z,,,,,,,,,,,,,,,,,,,,,,,,,,NA
371f3,Sit,html.Page,1_3_3_0,NA,form submission,29031.475000002,666694.69999999000,666667.757,666783.825,695815.3,695817.1,2020-05-25T19:28:45Z,,,,,,,,,,,,,,,,,,,,,,,,,,NA
371f3,Seq,flow.Sequence,1_3_3,NA,completion,29031.475000002,666694.39999999,666667.757,666783.825,695815.3,695818.79999999,2020-05-25T19:28:45Z,,,,,,,,,,,,,,,,,,,,,,,,,,NA
f571e,Sit,html.Page,1_3_3_0,NA,form submission,20455,616202,616231,616241,636696,636697,2020-05-25T19:28:50Z,,,,,,,,,,,,,,,,,,,,,,,,,,NA
f571e,Seq,flow.Sequence,1_3_3,NA,completion,20455,616201,616231,616241,636696,636698,2020-05-25T19:28:50Z,,,,,,,,,,,,,,,,,,,,,,,,,,NA
af22b,Sit,html.Page,1_1_7_0,NA,form submission,30247.763999993,499332.89999999,499329.129,499379.236,529626.99999999,529627.89999999,2020-05-25T19:29:05Z,,,,,,,,,,,,,,,,,,,,,,,,,,NA
af22b,Seq,flow.Sequence,1_1_7,NA,completion,30247.763999993,499332.7,499329.129,499379.236,529626.99999999,529628.79999999,2020-05-25T19:29:05Z,,,,,,,,,,,,,,,,,,,,,,,,,,NA
f571e,Sit,html.Page,1_3_4_0,NA,form submission,24606,636701,636732,636743,661349,661351,2020-05-25T19:29:14Z,,,,,,,,,,,,,,,,,,,,,,,,,,NA
f571e,Seq,flow.Sequence,1_3_4,NA,completion,24606,636700,636732,636743,661349,661355,2020-05-25T19:29:14Z,,,,,,,,,,,,,,,,,,,,,,,,,,NA
371f3,Sit,html.Page,1_3_4_0,NA,form submission,34503.019999994,695819.99999999,695780.888,695896.98,730399.99999999,730401.79999999,2020-05-25T19:29:19Z,,,,,,,,,,,,,,,,,,,,,,,,,,NA
371f3,Seq,flow.Sequence,1_3_4,NA,completion,34503.019999994,695819.6,695780.888,695896.98,730399.99999999,730403.9,2020-05-25T19:29:19Z,,,,,,,,,,,,,,,,,,,,,,,,,,NA
371f3,Sit,html.Page,1_3_5_0,NA,form submission,34895.125999994,730404.89999999,730364.582,730480.674,765375.79999999,765378.19999999000,2020-05-25T19:29:54Z,,,,,,,,,,,,,,,,,,,,,,,,,,NA
371f3,Seq,flow.Sequence,1_3_5,NA,completion,34895.125999994,730404.7,730364.582,730480.674,765375.79999999,765380.69999999000,2020-05-25T19:29:54Z,,,,,,,,,,,,,,,,,,,,,,,,,,NA
af22b,Sit,html.Page,1_1_8_0,NA,form submission,52790.740999992,529629.5,529613.946,529664.059,582454.79999999,582456.1,2020-05-25T19:29:58Z,,,,,,,,,,,,,,,,,,,,,,,,,,NA
af22b,Seq,flow.Sequence,1_1_8,NA,completion,52790.740999992,529629.3,529613.946,529664.059,582454.79999999,582457.1,2020-05-25T19:29:58Z,,,,,,,,,,,,,,,,,,,,,,,,,,NA
f571e,Sit,html.Page,1_3_6_0,NA,form submission,20597,689909,689919,689939,710536,710537,2020-05-25T19:30:04Z,,,,,,,,,,,,,,,,,,,,,,,,,,NA
f571e,Seq,flow.Sequence,1_3_6,NA,completion,20597,689908,689919,689939,710536,710538,2020-05-25T19:30:04Z,,,,,,,,,,,,,,,,,,,,,,,,,,NA
371f3,Sit,html.Page,1_3_6_0,NA,form submission,28501.103999997,765383.2,765347.206,765463.296,793964.4,793966.09999999,2020-05-25T19:30:23Z,,,,,,,,,,,,,,,,,,,,,,,,,,NA
371f3,Seq,flow.Sequence,1_3_6,NA,completion,28501.103999997,765382.49999999,765347.206,765463.296,793964.4,793967.8,2020-05-25T19:30:23Z,,,,,,,,,,,,,,,,,,,,,,,,,,NA
f571e,Sit,html.Page,1_3_7_0,NA,form submission,27556,710539,710550,710569,738125,738126,2020-05-25T19:30:31Z,,,,,,,,,,,,,,,,,,,,,,,,,,NA
f571e,Seq,flow.Sequence,1_3_7,NA,completion,27556,710539,710550,710569,738125,738127,2020-05-25T19:30:31Z,,,,,,,,,,,,,,,,,,,,,,,,,,NA
af22b,Sit,html.Page,1_1_9_0,NA,form submission,39068.310999998,582457.7,582446.463,582496.589,621564.9,621566.1,2020-05-25T19:30:37Z,,,,,,,,,,,,,,,,,,,,,,,,,,NA
af22b,Seq,flow.Sequence,1_1_9,NA,completion,39068.310999998,582457.49999999,582446.463,582496.589,621564.9,621567.19999999000,2020-05-25T19:30:37Z,,,,,,,,,,,,,,,,,,,,,,,,,,NA
af22b,Loop1,flow.Loop,1_1,NA,completion,440157.838,181379.39999999,181378.483,181407.062,621564.9,621568.09999999,2020-05-25T19:30:37Z,,,,,,,,,,,,,,,,,,,,,,,,,,NA
af22b,Progress,html.Page,1_2,NA,form submission,5457.7849999939,621568.6,621565.206,621581.915,627039.69999999000,627040.19999999000,2020-05-25T19:30:42Z,,,,,,,,,,,,,,,,,,,,,,,,,,NA
f571e,Sit,html.Page,1_3_8_0,NA,form submission,33934,738128,738140,738159,772093,772094,2020-05-25T19:31:05Z,,,,,,,,,,,,,,,,,,,,,,,,,,NA
f571e,Seq,flow.Sequence,1_3_8,NA,completion,33934,738128,738140,738159,772093,772096,2020-05-25T19:31:05Z,,,,,,,,,,,,,,,,,,,,,,,,,,NA
371f3,Sit,html.Page,1_3_7_0,NA,form submission,57660.615999994,793968.89999999,793945.339,794061.384,851721.99999999,851724,2020-05-25T19:31:21Z,,,,,,,,,,,,,,,,,,,,,,,,,,NA
371f3,Seq,flow.Sequence,1_3_7,NA,completion,57660.615999994,793968.7,793945.339,794061.384,851721.99999999,851726.29999999,2020-05-25T19:31:21Z,,,,,,,,,,,,,,,,,,,,,,,,,,NA
af22b,Sit,html.Page,1_3_0_0,NA,form submission,41202.95599999,627041,627041.265,627076.544,668279.49999999,668280.3,2020-05-25T19:31:23Z,,,,,,,,,,,,,,,,,,,,,,,,,,NA
af22b,Seq,flow.Sequence,1_3_0,NA,completion,41202.95599999,627040.89999999,627041.265,627076.544,668279.49999999,668281.2,2020-05-25T19:31:23Z,,,,,,,,,,,,,,,,,,,,,,,,,,NA
f571e,Sit,html.Page,1_3_9_0,NA,form submission,36001,772097,772107,772128,808129,808130,2020-05-25T19:31:41Z,,,,,,,,,,,,,,,,,,,,,,,,,,NA
f571e,Seq,flow.Sequence,1_3_9,NA,completion,36001,772097,772107,772128,808129,808132,2020-05-25T19:31:41Z,,,,,,,,,,,,,,,,,,,,,,,,,,NA
f571e,Loop2,flow.Loop,1_3,NA,completion,275075,533028,533045,533054,808129,808132,2020-05-25T19:31:41Z,,,,,,,,,,,,,,,,,,,,,,,,,,NA
f571e,Progress,html.Page,1_4,NA,form submission,5527,808133,808141,808144,813671,813672,2020-05-25T19:31:47Z,,,,,,,,,,,,,,,,,,,,,,,,,,NA
371f3,Sit,html.Page,1_3_8_0,NA,form submission,26981.563999995,851727.49999999,851689.316,851821.936,878803.49999999,878804.9,2020-05-25T19:31:48Z,,,,,,,,,,,,,,,,,,,,,,,,,,NA
371f3,Seq,flow.Sequence,1_3_8,NA,completion,26981.563999995,851727.19999999000,851689.316,851821.936,878803.49999999,878806.49999999,2020-05-25T19:31:48Z,,,,,,,,,,,,,,,,,,,,,,,,,,NA
af22b,Sit,html.Page,1_3_1_0,NA,form submission,34096.785999996,668281.9,668282.096,668315.514,702412.3,702413.2,2020-05-25T19:31:57Z,,,,,,,,,,,,,,,,,,,,,,,,,,NA
af22b,Seq,flow.Sequence,1_3_1,NA,completion,34096.785999996,668281.69999999000,668282.096,668315.514,702412.3,702414.2,2020-05-25T19:31:57Z,,,,,,,,,,,,,,,,,,,,,,,,,,NA
f571e,Sit,html.Page,1_5_0_0,NA,form submission,20844,813673,813680,813681,834525,834526,2020-05-25T19:32:08Z,,,,,,,,,,,,,,,,,,,,,,,,,,NA
f571e,Seq,flow.Sequence,1_5_0,NA,completion,20844,813673,813680,813681,834525,834527,2020-05-25T19:32:08Z,,,,,,,,,,,,,,,,,,,,,,,,,,NA
371f3,Sit,html.Page,1_3_9_0,NA,form submission,31061.412000004,878807.6,878780.326,878896.388,909957.8,909959.8,2020-05-25T19:32:19Z,,,,,,,,,,,,,,,,,,,,,,,,,,NA
371f3,Seq,flow.Sequence,1_3_9,NA,completion,31061.412000004,878807.3,878780.326,878896.388,909957.8,909961.5,2020-05-25T19:32:19Z,,,,,,,,,,,,,,,,,,,,,,,,,,NA
371f3,Loop2,flow.Loop,1_3,NA,completion,358766.752,551095,551091.615,551191.048,909957.8,909963,2020-05-25T19:32:19Z,,,,,,,,,,,,,,,,,,,,,,,,,,NA
371f3,Progress,html.Page,1_4,NA,form submission,5115.5050000002,909963.8,909933.354,909999.695,915115.2,915115.9,2020-05-25T19:32:24Z,,,,,,,,,,,,,,,,,,,,,,,,,,NA
f571e,Sit,html.Page,1_5_1_0,NA,form submission,25555,834528,834539,834559,860114,860115,2020-05-25T19:32:33Z,,,,,,,,,,,,,,,,,,,,,,,,,,NA
f571e,Seq,flow.Sequence,1_5_1,NA,completion,25555,834527,834539,834559,860114,860116,2020-05-25T19:32:33Z,,,,,,,,,,,,,,,,,,,,,,,,,,NA
af22b,Sit,html.Page,1_3_2_0,NA,form submission,38166.941999994,702421.99999999,702408.739,702458.858,740625.79999999,740626.59999999,2020-05-25T19:32:36Z,,,,,,,,,,,,,,,,,,,,,,,,,,NA
af22b,Seq,flow.Sequence,1_3_2,NA,completion,38166.941999994,702421.8,702408.739,702458.858,740625.79999999,740627.4,2020-05-25T19:32:36Z,,,,,,,,,,,,,,,,,,,,,,,,,,NA
371f3,Sit,html.Page,1_5_0_0,NA,form submission,25540.023999997,915116.8,915121.74,915155.076,940695.1,940696.6,2020-05-25T19:32:50Z,,,,,,,,,,,,,,,,,,,,,,,,,,NA
371f3,Seq,flow.Sequence,1_5_0,NA,completion,25540.023999997,915116.59999999,915121.74,915155.076,940695.1,940698.5,2020-05-25T19:32:50Z,,,,,,,,,,,,,,,,,,,,,,,,,,NA
af22b,Sit,html.Page,1_3_3_0,NA,form submission,30616.544999993,740628,740625.938,740659.355,771275.89999999,771276.69999999000,2020-05-25T19:33:06Z,,,,,,,,,,,,,,,,,,,,,,,,,,NA
af22b,Seq,flow.Sequence,1_3_3,NA,completion,30616.544999993,740627.79999999,740625.938,740659.355,771275.89999999,771277.69999999000,2020-05-25T19:33:06Z,,,,,,,,,,,,,,,,,,,,,,,,,,NA
f571e,Sit,html.Page,1_5_2_0,NA,form submission,33596,860117,860128,860149,893745,893746,2020-05-25T19:33:07Z,,,,,,,,,,,,,,,,,,,,,,,,,,NA
f571e,Seq,flow.Sequence,1_5_2,NA,completion,33596,860116,860128,860149,893745,893746,2020-05-25T19:33:07Z,,,,,,,,,,,,,,,,,,,,,,,,,,NA
371f3,Sit,html.Page,1_5_1_0,NA,form submission,28108.042,940699.8,940670.177,940786.258,968894.3,968895.9,2020-05-25T19:33:18Z,,,,,,,,,,,,,,,,,,,,,,,,,,NA
371f3,Seq,flow.Sequence,1_5_1,NA,completion,28108.042,940699.5,940670.177,940786.258,968894.3,968897.9,2020-05-25T19:33:18Z,,,,,,,,,,,,,,,,,,,,,,,,,,NA
f571e,Sit,html.Page,1_5_3_0,NA,form submission,27487,893747,893758,893778,921265,921266,2020-05-25T19:33:34Z,,,,,,,,,,,,,,,,,,,,,,,,,,NA
f571e,Seq,flow.Sequence,1_5_3,NA,completion,27487,893747,893758,893778,921265,921266,2020-05-25T19:33:34Z,,,,,,,,,,,,,,,,,,,,,,,,,,NA
af22b,Sit,html.Page,1_3_4_0,NA,form submission,34237.431999996,771278.2,771276.254,771309.668,805547.1,805547.89999999,2020-05-25T19:33:41Z,,,,,,,,,,,,,,,,,,,,,,,,,,NA
af22b,Seq,flow.Sequence,1_3_4,NA,completion,34237.431999996,771278.1,771276.254,771309.668,805547.1,805548.89999999,2020-05-25T19:33:41Z,,,,,,,,,,,,,,,,,,,,,,,,,,NA
371f3,Sit,html.Page,1_5_2_0,NA,form submission,27688.554999993,968899.1,968872.384,968971.845,996660.39999999,996661.4,2020-05-25T19:33:46Z,,,,,,,,,,,,,,,,,,,,,,,,,,NA
371f3,Seq,flow.Sequence,1_5_2,NA,completion,27688.554999993,968898.8,968872.384,968971.845,996660.39999999,996662.79999999,2020-05-25T19:33:46Z,,,,,,,,,,,,,,,,,,,,,,,,,,NA
39ef7,Sit,html.Page,1_3_9_0,NA,form submission,533464,1546099,1546118,1546151,2079615,2079621,2020-05-25T19:33:51Z,,,,,,,,,,,,,,,,,,,,,,,,,,NA
39ef7,Seq,flow.Sequence,1_3_9,NA,completion,533464,1546099,1546118,1546151,2079615,2079625,2020-05-25T19:33:51Z,,,,,,,,,,,,,,,,,,,,,,,,,,NA
39ef7,Loop2,flow.Loop,1_3,NA,completion,933008,1146551,1146570,1146607,2079615,2079627,2020-05-25T19:33:51Z,,,,,,,,,,,,,,,,,,,,,,,,,,NA
39ef7,Progress,html.Page,1_4,NA,form submission,4957.0000000002,2079628,2079642,2079649,2084606,2084612,2020-05-25T19:33:56Z,,,,,,,,,,,,,,,,,,,,,,,,,,NA
f571e,Sit,html.Page,1_5_4_0,NA,form submission,30705,921267,921278,921297,952002,952002,2020-05-25T19:34:05Z,,,,,,,,,,,,,,,,,,,,,,,,,,NA
f571e,Seq,flow.Sequence,1_5_4,NA,completion,30705,921267,921278,921297,952002,952003,2020-05-25T19:34:05Z,,,,,,,,,,,,,,,,,,,,,,,,,,NA
a240f,vp,html.Page,2_0_0,NA,form submission,484986.76,1021944,1021948.76,1021982.24,1506969,1506975,2020-05-25T19:34:09Z,,,,,,,,,,,,,,,,,,,,,,,,,,static/4.jpeg
a240f,loop,flow.Loop,2_0,NA,completion,484986.76,1021944,1021948.76,1021982.24,1506969,1506985,2020-05-25T19:34:09Z,,,,,,,,,,,,,,,,,,,,,,,,,,NA
af22b,Sit,html.Page,1_3_5_0,NA,form submission,31498.00399999,805549.39999999,805534.074,805584.196,837082.19999999000,837083.09999999,2020-05-25T19:34:12Z,,,,,,,,,,,,,,,,,,,,,,,,,,NA
af22b,Seq,flow.Sequence,1_3_5,NA,completion,31498.00399999,805549.3,805534.074,805584.196,837082.19999999000,837083.9,2020-05-25T19:34:12Z,,,,,,,,,,,,,,,,,,,,,,,,,,NA
371f3,Sit,html.Page,1_5_3_0,NA,form submission,26479.927000002,996663.5,996627.166,996710.073,1023190,1023200.3,2020-05-25T19:34:12Z,,,,,,,,,,,,,,,,,,,,,,,,,,NA
371f3,Seq,flow.Sequence,1_5_3,NA,completion,26479.927000002,996663.3,996627.166,996710.073,1023190,1023202.6,2020-05-25T19:34:12Z,,,,,,,,,,,,,,,,,,,,,,,,,,NA
f571e,Sit,html.Page,1_5_5_0,NA,form submission,24908,952004,952035,952045,976953,976954,2020-05-25T19:34:30Z,,,,,,,,,,,,,,,,,,,,,,,,,,NA
f571e,Seq,flow.Sequence,1_5_5,NA,completion,24908,952004,952035,952045,976953,976956,2020-05-25T19:34:30Z,,,,,,,,,,,,,,,,,,,,,,,,,,NA
371f3,Sit,html.Page,1_5_4_0,NA,form submission,30682.686999993,1023203.7,1023155.57,1023304.913,1053987.6,1053989.3,2020-05-25T19:34:43Z,,,,,,,,,,,,,,,,,,,,,,,,,,NA
371f3,Seq,flow.Sequence,1_5_4,NA,completion,30682.686999993,1023203.5,1023155.57,1023304.913,1053987.6,1053991,2020-05-25T19:34:43Z,,,,,,,,,,,,,,,,,,,,,,,,,,NA
f571e,Sit,html.Page,1_5_6_0,NA,form submission,19682,976957,976968,976989,996671,996674,2020-05-25T19:34:50Z,,,,,,,,,,,,,,,,,,,,,,,,,,NA
f571e,Seq,flow.Sequence,1_5_6,NA,completion,19682,976957,976968,976989,996671,996675,2020-05-25T19:34:50Z,,,,,,,,,,,,,,,,,,,,,,,,,,NA
af22b,Sit,html.Page,1_3_6_0,NA,form submission,44038.834000001,837084.5,837085.576,837118.966,881157.8,881158.7,2020-05-25T19:34:56Z,,,,,,,,,,,,,,,,,,,,,,,,,,NA
af22b,Seq,flow.Sequence,1_3_6,NA,completion,44038.834000001,837084.39999999,837085.576,837118.966,881157.8,881159.49999999,2020-05-25T19:34:56Z,,,,,,,,,,,,,,,,,,,,,,,,,,NA
f571e,Sit,html.Page,1_5_7_0,NA,form submission,15722,996676,996705,996715,1012437,1012438,2020-05-25T19:35:05Z,,,,,,,,,,,,,,,,,,,,,,,,,,NA
f571e,Seq,flow.Sequence,1_5_7,NA,completion,15722,996676,996705,996715,1012437,1012439,2020-05-25T19:35:05Z,,,,,,,,,,,,,,,,,,,,,,,,,,NA
371f3,Sit,html.Page,1_5_5_0,NA,form submission,33326.228,1053992,1053959.644,1054092.272,1087418.5,1087420.3,2020-05-25T19:35:16Z,,,,,,,,,,,,,,,,,,,,,,,,,,NA
371f3,Seq,flow.Sequence,1_5_5,NA,completion,33326.228,1053991.8,1053959.644,1054092.272,1087418.5,1087422.2,2020-05-25T19:35:16Z,,,,,,,,,,,,,,,,,,,,,,,,,,NA
f571e,Sit,html.Page,1_5_8_0,NA,form submission,19067,1012440,1012451,1012472,1031539,1031540,2020-05-25T19:35:25Z,,,,,,,,,,,,,,,,,,,,,,,,,,NA
f571e,Seq,flow.Sequence,1_5_8,NA,completion,19067,1012439,1012451,1012472,1031539,1031541,2020-05-25T19:35:25Z,,,,,,,,,,,,,,,,,,,,,,,,,,NA
af22b,Sit,html.Page,1_3_7_0,NA,form submission,46423.305999994,881160.09999999,881147.773,881197.894,927621.19999999000,927622.2,2020-05-25T19:35:43Z,,,,,,,,,,,,,,,,,,,,,,,,,,NA
af22b,Seq,flow.Sequence,1_3_7,NA,completion,46423.305999994,881159.9,881147.773,881197.894,927621.19999999000,927622.99999999,2020-05-25T19:35:43Z,,,,,,,,,,,,,,,,,,,,,,,,,,NA
39ef7,Sit,html.Page,1_5_0_0,NA,form submission,111021,2084613,2084637,2084673,2195694,2195695,2020-05-25T19:35:47Z,,,,,,,,,,,,,,,,,,,,,,,,,,NA
39ef7,Seq,flow.Sequence,1_5_0,NA,completion,111021,2084613,2084637,2084673,2195694,2195696,2020-05-25T19:35:47Z,,,,,,,,,,,,,,,,,,,,,,,,,,NA
f571e,Sit,html.Page,1_5_9_0,NA,form submission,41993,1031543,1031574,1031585,1073578,1073579,2020-05-25T19:36:07Z,,,,,,,,,,,,,,,,,,,,,,,,,,NA
f571e,Seq,flow.Sequence,1_5_9,NA,completion,41993,1031543,1031574,1031585,1073578,1073581,2020-05-25T19:36:07Z,,,,,,,,,,,,,,,,,,,,,,,,,,NA
f571e,Loop3,flow.Loop,1_5,NA,completion,259897,813673,813680,813681,1073578,1073582,2020-05-25T19:36:07Z,,,,,,,,,,,,,,,,,,,,,,,,,,NA
f571e,Risk_assessment,flow.Sequence,1,NA,completion,901624,171916,171937,171954,1073578,1073582,2020-05-25T19:36:07Z,,,,,,,,,,,,,,,,,,,,,,,,,,NA
af22b,Sit,html.Page,1_3_8_0,NA,form submission,43319.128999995,927623.59999999,927599.856,927666.671,970985.79999999,970986.59999999,2020-05-25T19:36:26Z,,,,,,,,,,,,,,,,,,,,,,,,,,NA
af22b,Seq,flow.Sequence,1_3_8,NA,completion,43319.128999995,927623.4,927599.856,927666.671,970985.79999999,970987.29999999,2020-05-25T19:36:26Z,,,,,,,,,,,,,,,,,,,,,,,,,,NA
371f3,Sit,html.Page,1_5_6_0,NA,form submission,69109.135000005,1087423.5,1087399.894,1087515.965,1156625.1,1156627,2020-05-25T19:36:26Z,,,,,,,,,,,,,,,,,,,,,,,,,,NA
371f3,Seq,flow.Sequence,1_5_6,NA,completion,69109.135000005,1087423.3,1087399.894,1087515.965,1156625.1,1156629.3,2020-05-25T19:36:26Z,,,,,,,,,,,,,,,,,,,,,,,,,,NA
39ef7,Sit,html.Page,1_5_1_0,NA,form submission,50022,2195699,2195723,2195760,2245782,2245782,2020-05-25T19:36:38Z,,,,,,,,,,,,,,,,,,,,,,,,,,NA
39ef7,Seq,flow.Sequence,1_5_1,NA,completion,50022,2195697,2195723,2195760,2245782,2245783,2020-05-25T19:36:38Z,,,,,,,,,,,,,,,,,,,,,,,,,,NA
371f3,Sit,html.Page,1_5_7_0,NA,form submission,32806.767999997,1156630.8,1156598.877,1156714.932,1189521.7,1189523.1,2020-05-25T19:36:59Z,,,,,,,,,,,,,,,,,,,,,,,,,,NA
371f3,Seq,flow.Sequence,1_5_7,NA,completion,32806.767999997,1156630.3,1156598.877,1156714.932,1189521.7,1189524.3,2020-05-25T19:36:59Z,,,,,,,,,,,,,,,,,,,,,,,,,,NA
af22b,Sit,html.Page,1_3_9_0,NA,form submission,39319.795000001,970987.89999999,970980.582,971030.705,1010350.5,1010351.4,2020-05-25T19:37:05Z,,,,,,,,,,,,,,,,,,,,,,,,,,NA
af22b,Seq,flow.Sequence,1_3_9,NA,completion,39319.795000001,970987.7,970980.582,971030.705,1010350.5,1010352.2,2020-05-25T19:37:05Z,,,,,,,,,,,,,,,,,,,,,,,,,,NA
af22b,Loop2,flow.Loop,1_3,NA,completion,383273.956,627040.79999999,627041.265,627076.544,1010350.5,1010352.8,2020-05-25T19:37:05Z,,,,,,,,,,,,,,,,,,,,,,,,,,NA
af22b,Progress,html.Page,1_4,NA,form submission,2886.6079999997,1010353.1,1010351.887,1010368.592,1013255.2,1013255.9,2020-05-25T19:37:08Z,,,,,,,,,,,,,,,,,,,,,,,,,,NA
39ef7,Sit,html.Page,1_5_2_0,NA,form submission,38647,2245783,2245807,2245843,2284490,2284491,2020-05-25T19:37:16Z,,,,,,,,,,,,,,,,,,,,,,,,,,NA
39ef7,Seq,flow.Sequence,1_5_2,NA,completion,38647,2245783,2245807,2245843,2284490,2284492,2020-05-25T19:37:16Z,,,,,,,,,,,,,,,,,,,,,,,,,,NA
371f3,Sit,html.Page,1_5_8_0,NA,form submission,43352.485999993,1189525.1,1189506.334,1189572.614,1232925.1,1232926.6,2020-05-25T19:37:42Z,,,,,,,,,,,,,,,,,,,,,,,,,,NA
371f3,Seq,flow.Sequence,1_5_8,NA,completion,43352.485999993,1189524.8,1189506.334,1189572.614,1232925.1,1232928.3,2020-05-25T19:37:42Z,,,,,,,,,,,,,,,,,,,,,,,,,,NA
af22b,Sit,html.Page,1_5_0_0,NA,form submission,36658.952999992,1013256.5,1013257.811,1013291.247,1049950.2,1049951.1,2020-05-25T19:37:45Z,,,,,,,,,,,,,,,,,,,,,,,,,,NA
af22b,Seq,flow.Sequence,1_5_0,NA,completion,36658.952999992,1013256.3,1013257.811,1013291.247,1049950.2,1049951.9,2020-05-25T19:37:45Z,,,,,,,,,,,,,,,,,,,,,,,,,,NA
39ef7,Sit,html.Page,1_5_3_0,NA,form submission,40899,2284492,2284513,2284558,2325457,2325458,2020-05-25T19:37:57Z,,,,,,,,,,,,,,,,,,,,,,,,,,NA
39ef7,Seq,flow.Sequence,1_5_3,NA,completion,40899,2284492,2284513,2284558,2325457,2325460,2020-05-25T19:37:57Z,,,,,,,,,,,,,,,,,,,,,,,,,,NA
f571e,vp,html.Page,2_0_0,NA,form submission,127895,1073584,1073601,1073606,1201501,1201511,2020-05-25T19:38:15Z,,,,,,,,,,,,,,,,,,,,,,,,,,static/3.jpeg
f571e,loop,flow.Loop,2_0,NA,completion,127895,1073583,1073601,1073606,1201501,1201515,2020-05-25T19:38:15Z,,,,,,,,,,,,,,,,,,,,,,,,,,NA
af22b,Sit,html.Page,1_5_1_0,NA,form submission,36509.049999995,1049952.4,1049941.017,1049991.15,1086500.2,1086501.1,2020-05-25T19:38:22Z,,,,,,,,,,,,,,,,,,,,,,,,,,NA
af22b,Seq,flow.Sequence,1_5_1,NA,completion,36509.049999995,1049952.3,1049941.017,1049991.15,1086500.2,1086502.1,2020-05-25T19:38:22Z,,,,,,,,,,,,,,,,,,,,,,,,,,NA
371f3,Sit,html.Page,1_5_9_0,NA,form submission,58744.562999995,1232929.4,1232908.578,1233024.637,1291769.2,1291770.1,2020-05-25T19:38:41Z,,,,,,,,,,,,,,,,,,,,,,,,,,NA
371f3,Seq,flow.Sequence,1_5_9,NA,completion,58744.562999995,1232929.1,1232908.578,1233024.637,1291769.2,1291771.1,2020-05-25T19:38:41Z,,,,,,,,,,,,,,,,,,,,,,,,,,NA
371f3,Loop3,flow.Loop,1_5,NA,completion,376614.124,915116.4,915121.74,915155.076,1291769.2,1291771.7,2020-05-25T19:38:41Z,,,,,,,,,,,,,,,,,,,,,,,,,,NA
371f3,Risk_assessment,flow.Sequence,1,NA,completion,1177269.795,114466.7,114416.507,114499.405,1291769.2,1291772.6,2020-05-25T19:38:41Z,,,,,,,,,,,,,,,,,,,,,,,,,,NA
39ef7,Sit,html.Page,1_5_4_0,NA,form submission,49322,2325462,2325483,2325525,2374847,2374849,2020-05-25T19:38:47Z,,,,,,,,,,,,,,,,,,,,,,,,,,NA
39ef7,Seq,flow.Sequence,1_5_4,NA,completion,49322,2325461,2325483,2325525,2374847,2374849,2020-05-25T19:38:47Z,,,,,,,,,,,,,,,,,,,,,,,,,,NA
af22b,Sit,html.Page,1_5_2_0,NA,form submission,25432.282999987,1086502.6,1086486.706,1086536.817,1111969.1,1111970,2020-05-25T19:38:47Z,,,,,,,,,,,,,,,,,,,,,,,,,,NA
af22b,Seq,flow.Sequence,1_5_2,NA,completion,25432.282999987,1086502.4,1086486.706,1086536.817,1111969.1,1111970.9,2020-05-25T19:38:47Z,,,,,,,,,,,,,,,,,,,,,,,,,,NA
af22b,Sit,html.Page,1_5_3_0,NA,form submission,41536.026999995,1111971.4,1111962.167,1112012.273,1153548.3,1153549.2,2020-05-25T19:39:29Z,,,,,,,,,,,,,,,,,,,,,,,,,,NA
af22b,Seq,flow.Sequence,1_5_3,NA,completion,41536.026999995,1111971.3,1111962.167,1112012.273,1153548.3,1153550.1,2020-05-25T19:39:29Z,,,,,,,,,,,,,,,,,,,,,,,,,,NA
39ef7,Sit,html.Page,1_5_5_0,NA,form submission,43916,2374849,2374869,2374908,2418824,2418825,2020-05-25T19:39:31Z,,,,,,,,,,,,,,,,,,,,,,,,,,NA
39ef7,Seq,flow.Sequence,1_5_5,NA,completion,43916,2374849,2374869,2374908,2418824,2418825,2020-05-25T19:39:31Z,,,,,,,,,,,,,,,,,,,,,,,,,,NA
39ef7,Sit,html.Page,1_5_6_0,NA,form submission,38258,2418825,2418841,2418870,2457128,2457128,2020-05-25T19:40:09Z,,,,,,,,,,,,,,,,,,,,,,,,,,NA
39ef7,Seq,flow.Sequence,1_5_6,NA,completion,38258,2418825,2418841,2418870,2457128,2457129,2020-05-25T19:40:09Z,,,,,,,,,,,,,,,,,,,,,,,,,,NA
af22b,Sit,html.Page,1_5_4_0,NA,form submission,48102.372,1153550.7,1153552.015,1153585.428,1201687.8,1201688.7,2020-05-25T19:40:17Z,,,,,,,,,,,,,,,,,,,,,,,,,,NA
af22b,Seq,flow.Sequence,1_5_4,NA,completion,48102.372,1153550.5,1153552.015,1153585.428,1201687.8,1201689.7,2020-05-25T19:40:17Z,,,,,,,,,,,,,,,,,,,,,,,,,,NA
39ef7,Sit,html.Page,1_5_7_0,NA,form submission,34636,2457129,2457148,2457186,2491822,2491822,2020-05-25T19:40:44Z,,,,,,,,,,,,,,,,,,,,,,,,,,NA
39ef7,Seq,flow.Sequence,1_5_7,NA,completion,34636,2457129,2457148,2457186,2491822,2491823,2020-05-25T19:40:44Z,,,,,,,,,,,,,,,,,,,,,,,,,,NA
af22b,Sit,html.Page,1_5_5_0,NA,form submission,27032.156999992,1201690.2,1201687.624,1201721.043,1228753.2,1228753.7,2020-05-25T19:40:44Z,,,,,,,,,,,,,,,,,,,,,,,,,,NA
af22b,Seq,flow.Sequence,1_5_5,NA,completion,27032.156999992,1201690.1,1201687.624,1201721.043,1228753.2,1228754,2020-05-25T19:40:44Z,,,,,,,,,,,,,,,,,,,,,,,,,,NA
af22b,Sit,html.Page,1_5_6_0,NA,form submission,26732.195000001,1228754.3,1228747.892,1228781.305,1255513.5,1255514.3,2020-05-25T19:41:11Z,,,,,,,,,,,,,,,,,,,,,,,,,,NA
af22b,Seq,flow.Sequence,1_5_6,NA,completion,26732.195000001,1228754.3,1228747.892,1228781.305,1255513.5,1255515.2,2020-05-25T19:41:11Z,,,,,,,,,,,,,,,,,,,,,,,,,,NA
39ef7,Sit,html.Page,1_5_8_0,NA,form submission,35103,2491823,2491839,2491872,2526975,2526976,2020-05-25T19:41:19Z,,,,,,,,,,,,,,,,,,,,,,,,,,NA
39ef7,Seq,flow.Sequence,1_5_8,NA,completion,35103,2491823,2491839,2491872,2526975,2526978,2020-05-25T19:41:19Z,,,,,,,,,,,,,,,,,,,,,,,,,,NA
af22b,Sit,html.Page,1_5_7_0,NA,form submission,29621.280999998,1255515.7,1255508.394,1255558.519,1285179.8,1285180.7,2020-05-25T19:41:40Z,,,,,,,,,,,,,,,,,,,,,,,,,,NA
af22b,Seq,flow.Sequence,1_5_7,NA,completion,29621.280999998,1255515.6,1255508.394,1255558.519,1285179.8,1285181.6,2020-05-25T19:41:40Z,,,,,,,,,,,,,,,,,,,,,,,,,,NA
39ef7,Sit,html.Page,1_5_9_0,NA,form submission,40014,2526979,2526999,2527040,2567054,2567054,2020-05-25T19:41:59Z,,,,,,,,,,,,,,,,,,,,,,,,,,NA
39ef7,Seq,flow.Sequence,1_5_9,NA,completion,40014,2526979,2526999,2527040,2567054,2567056,2020-05-25T19:41:59Z,,,,,,,,,,,,,,,,,,,,,,,,,,NA
39ef7,Loop3,flow.Loop,1_5,NA,completion,482381,2084612,2084637,2084673,2567054,2567057,2020-05-25T19:41:59Z,,,,,,,,,,,,,,,,,,,,,,,,,,NA
39ef7,Risk_assessment,flow.Sequence,1,NA,completion,2161204,405822,405838,405850,2567054,2567059,2020-05-25T19:41:59Z,,,,,,,,,,,,,,,,,,,,,,,,,,NA
af22b,Sit,html.Page,1_5_8_0,NA,form submission,32671.577999993,1285182.1,1285174.3,1285224.422,1317896,1317897.1,2020-05-25T19:42:13Z,,,,,,,,,,,,,,,,,,,,,,,,,,NA
af22b,Seq,flow.Sequence,1_5_8,NA,completion,32671.577999993,1285182,1285174.3,1285224.422,1317896,1317898.3,2020-05-25T19:42:13Z,,,,,,,,,,,,,,,,,,,,,,,,,,NA
39ef7,vp,html.Page,2_0_0,NA,form submission,23764,2567060,2567077,2567088,2590852,2590853,2020-05-25T19:42:23Z,,,,,,,,,,,,,,,,,,,,,,,,,,static/3.jpeg
39ef7,loop,flow.Loop,2_0,NA,completion,23764,2567060,2567077,2567088,2590852,2590854,2020-05-25T19:42:23Z,,,,,,,,,,,,,,,,,,,,,,,,,,NA
af22b,Sit,html.Page,1_5_9_0,NA,form submission,26789.614999997,1317898.8,1317896.279,1317929.685,1344719.3,1344720.1,2020-05-25T19:42:40Z,,,,,,,,,,,,,,,,,,,,,,,,,,NA
af22b,Seq,flow.Sequence,1_5_9,NA,completion,26789.614999997,1317898.6,1317896.279,1317929.685,1344719.3,1344721,2020-05-25T19:42:40Z,,,,,,,,,,,,,,,,,,,,,,,,,,NA
af22b,Loop3,flow.Loop,1_5,NA,completion,331428.053,1013256.2,1013257.811,1013291.247,1344719.3,1344721.7,2020-05-25T19:42:40Z,,,,,,,,,,,,,,,,,,,,,,,,,,NA
