observation,sender,sender_type,sender_id,x,ended_on,duration,time_run,time_render,time_show,time_end,time_commit,timestamp,gender,age,grad,drug,cof,cig,alc,bfi10_e1,bfi10_v2,bfi10_g1,bfi10_n1,bfi10_o1,bfi10_e2,bfi10_v1,bfi10_g2,bfi10_n2,bfi10_o2,story,option_a,option_b,story_number,risk_a,risk_b,fame_known,risk_oa,meme
07f51,welcome,html.Page,0_0,NA,form submission,98131.631999978,5808.7150000501,5807.196,5974.453,104106.08499998,104110.74500007,2020-06-11T14:56:55Z,,,,,,,,,,,,,,,,,,,,,,,,,,NA
07f51,dem,html.Page,0_1,NA,form submission,45208.416000068,104111.81999999,104089.193,104189.159,149397.57500007,149400.04500002,2020-06-11T14:57:41Z,,,,,,,,,,,,,,,,,,,,,,,,,,NA
07f51,BFI-10,html.Page,0_2,NA,form submission,44620.409000054,149400.64500005,149391.082,149541.031,194161.44000005,194163.65500004,2020-06-11T14:58:26Z,,,,,,,,,,,,,,,,,,,,,,,,,,NA
07f51,Dem,flow.Sequence,0,NA,completion,188186.98700005,5808.5950000677,5807.196,5974.453,194161.44000005,194168.21999999,2020-06-11T14:58:26Z,,,,,,,,,,,,,,,,,,,,,,,,,,NA
07f51,SitIntro,html.Page,1_0,NA,form submission,86070.371000041,194168.81000006,194141.045,194207.689,280278.06000004,280282.11000003,2020-06-11T14:59:52Z,,,,,,,,,,,,,,,,,,,,,,,,,,NA
07f51,Loop1,flow.Loop,1_1,NA,completion,405020.67500002,280282.73500002,280261.394,280361.36,685382.03500002,685385.11999999,2020-06-11T15:06:37Z,,,,,,,,,,,,,,,,,,,,,,,,,,NA
07f51,Progress,html.Page,1_2,NA,form submission,6064.6970000542,685385.43500006,685368.819,685435.463,691500.16000005,691502.10499996,2020-06-11T15:06:43Z,,,,,,,,,,,,,,,,,,,,,,,,,,NA
07f51,Loop2,flow.Loop,1_3,NA,completion,371058.20000002,691502.54999998,691491.574,691591.54,1062649.74,1062652.73,2020-06-11T15:12:54Z,,,,,,,,,,,,,,,,,,,,,,,,,,NA
07f51,Progress,html.Page,1_4,NA,form submission,265796.35699997,1062653.01,1062639.266,1062672.588,1328468.945,1328471.335,2020-06-11T15:17:20Z,,,,,,,,,,,,,,,,,,,,,,,,,,NA
07f51,Loop3,flow.Loop,1_5,NA,completion,827931.06200001,1328471.715,1328461.787,1328561.753,2156492.815,2156496.265,2020-06-11T15:31:08Z,,,,,,,,,,,,,,,,,,,,,,,,,,NA
07f51,Risk_assessment,flow.Sequence,1,NA,completion,1962285.126,194168.65500004,194141.045,194207.689,2156492.815,2156496.65,2020-06-11T15:31:08Z,,,,,,,,,,,,,,,,,,,,,,,,,,NA
106a1,welcome,html.Page,0_0,NA,form submission,11952.43599999,2667.999999976,2677.986,2744.664,14697.09999999,14699.599999993,2020-06-03T15:51:54Z,,,,,,,,,,,,,,,,,,,,,,,,,,NA
106a1,dem,html.Page,0_1,NA,form submission,32101.525999997,14701.299999986,14662.005,14728.674,46830.199999997,46831.299999991,2020-06-03T15:52:26Z,,,,,,,,,,,,,,,,,,,,,,,,,,NA
106a1,BFI-10,html.Page,0_2,NA,form submission,35274.387999976,46832.199999975,46814.806,46864.812,82139.199999976,82140.399999975,2020-06-03T15:53:02Z,,,,,,,,,,,,,,,,,,,,,,,,,,NA
106a1,Dem,flow.Sequence,0,NA,completion,79394.535999976,2667.7999999956,2677.986,2744.664,82139.199999976,82148.599999986,2020-06-03T15:53:02Z,,,,,,,,,,,,,,,,,,,,,,,,,,NA
169ac,welcome,html.Page,0_0,NA,form submission,60151.68,3354,3352.24,3468.32,63620,63626,2020-06-08T08:26:55Z,,,,,,,,,,,,,,,,,,,,,,,,,,NA
169ac,dem,html.Page,0_1,NA,form submission,65721.16,63630,63634.44,63684.84,129406,129408,2020-06-08T08:28:01Z,,,,,,,,,,,,,,,,,,,,,,,,,,NA
169ac,BFI-10,html.Page,0_2,NA,form submission,45476.6,129410,129400.44,129434.4,174911,174912,2020-06-08T08:28:46Z,,,,,,,,,,,,,,,,,,,,,,,,,,NA
169ac,Dem,flow.Sequence,0,NA,completion,171442.68,3354,3352.24,3468.32,174911,174914,2020-06-08T08:28:46Z,,,,,,,,,,,,,,,,,,,,,,,,,,NA
169ac,SitIntro,html.Page,1_0,NA,form submission,50943.5,174915,174906.72,174923.5,225867,225869,2020-06-08T08:29:37Z,,,,,,,,,,,,,,,,,,,,,,,,,,NA
169ac,Loop1,flow.Loop,1_1,NA,completion,354442.02,225870,225859.96,225913.98,580356,580360,2020-06-08T08:35:32Z,,,,,,,,,,,,,,,,,,,,,,,,,,NA
169ac,Progress,html.Page,1_2,NA,form submission,3784.08,580360,580349.5,580378.92,584163,584164,2020-06-08T08:35:36Z,,,,,,,,,,,,,,,,,,,,,,,,,,NA
17ed4,welcome,html.Page,0_0,NA,form submission,26460,1377,1392,1406,27866,27868,2020-06-06T21:05:37Z,,,,,,,,,,,,,,,,,,,,,,,,,,NA
17ed4,dem,html.Page,0_1,NA,form submission,29158,27870,27881,27894,57052,57053,2020-06-06T21:06:06Z,,,,,,,,,,,,,,,,,,,,,,,,,,NA
17ed4,BFI-10,html.Page,0_2,NA,form submission,35154,57054,57099,57212,92366,92367,2020-06-06T21:06:41Z,,,,,,,,,,,,,,,,,,,,,,,,,,NA
17ed4,Dem,flow.Sequence,0,NA,completion,90960,1376,1392,1406,92366,92369,2020-06-06T21:06:41Z,,,,,,,,,,,,,,,,,,,,,,,,,,NA
17ed4,SitIntro,html.Page,1_0,NA,form submission,19239,92370,92385,92401,111640,111641,2020-06-06T21:07:00Z,,,,,,,,,,,,,,,,,,,,,,,,,,NA
17ed4,Loop1,flow.Loop,1_1,NA,completion,262451,111642,111650,111717,374168,374171,2020-06-06T21:11:23Z,,,,,,,,,,,,,,,,,,,,,,,,,,NA
17ed4,Progress,html.Page,1_2,NA,form submission,4520,374172,374181,374192,378712,378714,2020-06-06T21:11:27Z,,,,,,,,,,,,,,,,,,,,,,,,,,NA
2250c,welcome,html.Page,0_0,NA,form submission,113085,951,963,976,114061,114062,2020-06-10T13:46:00Z,,,,,,,,,,,,,,,,,,,,,,,,,,NA
2250c,dem,html.Page,0_1,NA,form submission,54612,114062,114088,114101,168713,168713,2020-06-10T13:46:55Z,,,,,,,,,,,,,,,,,,,,,,,,,,NA
2250c,BFI-10,html.Page,0_2,NA,form submission,64433,168714,168735,168749,233182,233182,2020-06-10T13:47:59Z,,,,,,,,,,,,,,,,,,,,,,,,,,NA
2250c,Dem,flow.Sequence,0,NA,completion,232206,951,963,976,233182,233183,2020-06-10T13:47:59Z,,,,,,,,,,,,,,,,,,,,,,,,,,NA
2250c,SitIntro,html.Page,1_0,NA,form submission,52830,233183,233194,233206,286036,286037,2020-06-10T13:48:52Z,,,,,,,,,,,,,,,,,,,,,,,,,,NA
2250c,Loop1,flow.Loop,1_1,NA,completion,418912,286037,286053,286091,705003,705004,2020-06-10T13:55:51Z,,,,,,,,,,,,,,,,,,,,,,,,,,NA
2250c,Progress,html.Page,1_2,NA,form submission,4700,705004,705009,705025,709725,709726,2020-06-10T13:55:56Z,,,,,,,,,,,,,,,,,,,,,,,,,,NA
2250c,Loop2,flow.Loop,1_3,NA,completion,304833,709726,709736,709754,1014587,1014588,2020-06-10T14:01:01Z,,,,,,,,,,,,,,,,,,,,,,,,,,NA
2250c,Progress,html.Page,1_4,NA,form submission,3990,1014588,1014593,1014607,1018597,1018597,2020-06-10T14:01:05Z,,,,,,,,,,,,,,,,,,,,,,,,,,NA
2250c,Loop3,flow.Loop,1_5,NA,completion,289776,1018598,1018608,1018626,1308402,1308402,2020-06-10T14:05:54Z,,,,,,,,,,,,,,,,,,,,,,,,,,NA
2250c,Risk_assessment,flow.Sequence,1,NA,completion,1075196,233183,233194,233206,1308402,1308402,2020-06-10T14:05:54Z,,,,,,,,,,,,,,,,,,,,,,,,,,NA
2250c,vp,html.Page,2_0_0,NA,form submission,201525,1308403,1308409,1308474,1509999,1509999,2020-06-10T14:09:16Z,,,,,,,,,,,,,,,,,,,,,,,,,,static/2.jpeg
2250c,loop,flow.Loop,2_0,NA,completion,201525,1308403,1308409,1308474,1509999,1510000,2020-06-10T14:09:16Z,,,,,,,,,,,,,,,,,,,,,,,,,,NA
2f12c,welcome,html.Page,0_0,NA,form submission,87944.008000054,1263.7850000756,1253.725,1303.767,89247.775000054,89249.715000042,2020-06-19T16:45:30Z,,,,,,,,,,,,,,,,,,,,,,,,,,NA
2f12c,dem,html.Page,0_1,NA,form submission,66003.878000001,89250.005000038,89231.283,89280.277,155284.155,155284.51999999,2020-06-19T16:46:36Z,,,,,,,,,,,,,,,,,,,,,,,,,,NA
2f12c,BFI-10,html.Page,0_2,NA,form submission,57358.263000067,155284.72500003,155267.907,155316.862,212675.12500007,212675.46000006,2020-06-19T16:47:34Z,,,,,,,,,,,,,,,,,,,,,,,,,,NA
2f12c,Dem,flow.Sequence,0,NA,completion,211371.35800007,1263.7400000822,1253.725,1303.767,212675.12500007,212676.905,2020-06-19T16:47:34Z,,,,,,,,,,,,,,,,,,,,,,,,,,NA
2f12c,SitIntro,html.Page,1_0,NA,form submission,92503.212000085,212677.06500005,212661.745,212694.298,305197.51000009,305197.79500004,2020-06-19T16:49:06Z,,,,,,,,,,,,,,,,,,,,,,,,,,NA
2f12c,Loop1,flow.Loop,1_1,NA,completion,599216.73300003,305197.94500002,305194.201,305225.617,904442.35000003,904443.07500008,2020-06-19T16:59:06Z,,,,,,,,,,,,,,,,,,,,,,,,,,NA
2f12c,Progress,html.Page,1_2,NA,form submission,6447.8829999918,904443.15499999,904427.766,904460.277,910908.15999999,910908.42500003,2020-06-19T16:59:12Z,,,,,,,,,,,,,,,,,,,,,,,,,,NA
2f12c,Loop2,flow.Loop,1_3,NA,completion,477040.89699999,910908.53000002,910901.823,910933.768,1387974.665,1387975.3,2020-06-19T17:07:09Z,,,,,,,,,,,,,,,,,,,,,,,,,,NA
2f12c,Progress,html.Page,1_4,NA,form submission,2790.45600002,1387975.375,1387956.29,1387989.069,1390779.525,1390779.78,2020-06-19T17:07:12Z,,,,,,,,,,,,,,,,,,,,,,,,,,NA
2f12c,Loop3,flow.Loop,1_5,NA,completion,389499.04,1390779.8850001,1390776.465,1390808.72,1780307.76,1780308.31,2020-06-19T17:13:41Z,,,,,,,,,,,,,,,,,,,,,,,,,,NA
2f12c,Risk_assessment,flow.Sequence,1,NA,completion,1567613.462,212677.02499998,212661.745,212694.298,1780307.76,1780308.405,2020-06-19T17:13:41Z,,,,,,,,,,,,,,,,,,,,,,,,,,NA
2f12c,vp,html.Page,2_0_0,NA,form submission,191488.57400004,1780308.525,1780288.792,1780337.966,1971826.54,1971826.81,2020-06-19T17:16:53Z,,,,,,,,,,,,,,,,,,,,,,,,,,static/3.jpeg
2f12c,loop,flow.Loop,2_0,NA,completion,191488.57400004,1780308.5,1780288.792,1780337.966,1971826.54,1971826.995,2020-06-19T17:16:53Z,,,,,,,,,,,,,,,,,,,,,,,,,,NA
34e2c,welcome,html.Page,0_0,NA,form submission,77530.583999959,743.71499998961,743.53,776.896,78307.479999959,78309.584999923,2020-06-19T21:40:03Z,,,,,,,,,,,,,,,,,,,,,,,,,,NA
50cdb,welcome,html.Page,0_0,NA,form submission,4928.92,990,1003.42,1020.08,5949,5949,2020-06-08T22:01:51Z,,,,,,,,,,,,,,,,,,,,,,,,,,NA
50cdb,dem,html.Page,0_1,NA,form submission,46069.56,5950,5952.78,5969.44,52039,52040,2020-06-08T22:02:37Z,,,,,,,,,,,,,,,,,,,,,,,,,,NA
50cdb,BFI-10,html.Page,0_2,NA,form submission,14300.34,52043,52047,52063.66,66364,66365,2020-06-08T22:02:51Z,,,,,,,,,,,,,,,,,,,,,,,,,,NA
50cdb,Dem,flow.Sequence,0,NA,completion,65343.92,990,1003.42,1020.08,66364,66366,2020-06-08T22:02:51Z,,,,,,,,,,,,,,,,,,,,,,,,,,NA
50cdb,SitIntro,html.Page,1_0,NA,form submission,3124.64,66366,66361.7,66378.36,69503,69504,2020-06-08T22:02:55Z,,,,,,,,,,,,,,,,,,,,,,,,,,NA
659a2,welcome,html.Page,0_0,NA,form submission,45476,1043,1055,1068,46544,46545,2020-06-25T22:33:31Z,,,,,,,,,,,,,,,,,,,,,,,,,,NA
659a2,dem,html.Page,0_1,NA,form submission,78794,46545,46556,46583,125377,125378,2020-06-25T22:34:50Z,,,,,,,,,,,,,,,,,,,,,,,,,,NA
659a2,BFI-10,html.Page,0_2,NA,form submission,119196,125378,125414,125448,244644,244645,2020-06-25T22:36:49Z,,,,,,,,,,,,,,,,,,,,,,,,,,NA
659a2,Dem,flow.Sequence,0,NA,completion,243576,1042,1055,1068,244644,244648,2020-06-25T22:36:49Z,,,,,,,,,,,,,,,,,,,,,,,,,,NA
659a2,SitIntro,html.Page,1_0,NA,form submission,80594,244649,244660,244671,325265,325265,2020-06-25T22:38:10Z,,,,,,,,,,,,,,,,,,,,,,,,,,NA
659a2,Loop1,flow.Loop,1_1,NA,completion,333315,325266,325290,325327,658642,658645,2020-06-25T22:43:43Z,,,,,,,,,,,,,,,,,,,,,,,,,,NA
659a2,Progress,html.Page,1_2,NA,form submission,5520,658645,658652,658666,664186,664188,2020-06-25T22:43:49Z,,,,,,,,,,,,,,,,,,,,,,,,,,NA
659a2,Loop2,flow.Loop,1_3,NA,completion,393858,664188,664207,664233,1058091,1058093,2020-06-25T22:50:23Z,,,,,,,,,,,,,,,,,,,,,,,,,,NA
659a2,Progress,html.Page,1_4,NA,form submission,3427,1058094,1058103,1058111,1061538,1061539,2020-06-25T22:50:26Z,,,,,,,,,,,,,,,,,,,,,,,,,,NA
659a2,Loop3,flow.Loop,1_5,NA,completion,323742,1061540,1061558,1061590,1385332,1385335,2020-06-25T22:55:50Z,,,,,,,,,,,,,,,,,,,,,,,,,,NA
659a2,Risk_assessment,flow.Sequence,1,NA,completion,1140661,244648,244660,244671,1385332,1385335,2020-06-25T22:55:50Z,,,,,,,,,,,,,,,,,,,,,,,,,,NA
659a2,vp,html.Page,2_0_0,NA,form submission,47989,1385335,1385345,1385404,1433393,1433396,2020-06-25T22:56:38Z,,,,,,,,,,,,,,,,,,,,,,,,,,static/2.jpeg
659a2,loop,flow.Loop,2_0,NA,completion,47989,1385335,1385345,1385404,1433393,1433397,2020-06-25T22:56:38Z,,,,,,,,,,,,,,,,,,,,,,,,,,NA
67719,welcome,html.Page,0_0,NA,form submission,26609,959,994,1000,27609,27610,2020-06-10T10:09:53Z,,,,,,,,,,,,,,,,,,,,,,,,,,NA
67719,dem,html.Page,0_1,NA,form submission,38712,27610,27661,27669,66381,66381,2020-06-10T10:10:31Z,,,,,,,,,,,,,,,,,,,,,,,,,,NA
67719,BFI-10,html.Page,0_2,NA,form submission,74574,66381,66405,66419,140993,140993,2020-06-10T10:11:46Z,,,,,,,,,,,,,,,,,,,,,,,,,,NA
67719,Dem,flow.Sequence,0,NA,completion,139993,959,994,1000,140993,140993,2020-06-10T10:11:46Z,,,,,,,,,,,,,,,,,,,,,,,,,,NA
67719,SitIntro,html.Page,1_0,NA,form submission,49412,140994,141023,141039,190451,190451,2020-06-10T10:12:36Z,,,,,,,,,,,,,,,,,,,,,,,,,,NA
67719,Loop1,flow.Loop,1_1,NA,completion,364609,190452,190486,190493,555102,555102,2020-06-10T10:18:40Z,,,,,,,,,,,,,,,,,,,,,,,,,,NA
67719,Progress,html.Page,1_2,NA,form submission,4718,555102,555117,555133,559851,559851,2020-06-10T10:18:45Z,,,,,,,,,,,,,,,,,,,,,,,,,,NA
67719,Loop2,flow.Loop,1_3,NA,completion,347223,559851,559877,559887,907110,907111,2020-06-10T10:24:32Z,,,,,,,,,,,,,,,,,,,,,,,,,,NA
67719,Progress,html.Page,1_4,NA,form submission,2186,907111,907132,907149,909335,909335,2020-06-10T10:24:34Z,,,,,,,,,,,,,,,,,,,,,,,,,,NA
67719,Loop3,flow.Loop,1_5,NA,completion,249194,909336,909359,909365,1158559,1158560,2020-06-10T10:28:44Z,,,,,,,,,,,,,,,,,,,,,,,,,,NA
67719,Risk_assessment,flow.Sequence,1,NA,completion,1017520,140994,141023,141039,1158559,1158560,2020-06-10T10:28:44Z,,,,,,,,,,,,,,,,,,,,,,,,,,NA
67719,vp,html.Page,2_0_0,NA,form submission,40848,1158560,1158586,1158602,1199450,1199451,2020-06-10T10:29:25Z,,,,,,,,,,,,,,,,,,,,,,,,,,static/4.jpeg
67719,loop,flow.Loop,2_0,NA,completion,40848,1158560,1158586,1158602,1199450,1199451,2020-06-10T10:29:25Z,,,,,,,,,,,,,,,,,,,,,,,,,,NA
6b27e,welcome,html.Page,0_0,NA,form submission,2051346.62,1493,1505.72,1522.38,2052869,2052870,2020-06-08T17:40:40Z,,,,,,,,,,,,,,,,,,,,,,,,,,NA
6b27e,dem,html.Page,0_1,NA,form submission,29039.54,2052872,2052876.8,2052893.46,2081933,2081933,2020-06-08T17:41:09Z,,,,,,,,,,,,,,,,,,,,,,,,,,NA
6b27e,BFI-10,html.Page,0_2,NA,form submission,31431.6,2081934,2081939.74,2081956.4,2113388,2113388,2020-06-08T17:41:41Z,,,,,,,,,,,,,,,,,,,,,,,,,,NA
6b27e,Dem,flow.Sequence,0,NA,completion,2111865.62,1493,1505.72,1522.38,2113388,2113389,2020-06-08T17:41:41Z,,,,,,,,,,,,,,,,,,,,,,,,,,NA
6b27e,SitIntro,html.Page,1_0,NA,form submission,55434.9,2113390,2113402.42,2113419.1,2168854,2168854,2020-06-08T17:42:36Z,,,,,,,,,,,,,,,,,,,,,,,,,,NA
6b27e,Loop1,flow.Loop,1_1,NA,completion,257643.26,2168855,2168862.06,2168878.74,2426522,2426524,2020-06-08T17:46:54Z,,,,,,,,,,,,,,,,,,,,,,,,,,NA
6b27e,Progress,html.Page,1_2,NA,form submission,2919.2599999998,2426524,2426529.08,2426545.74,2429465,2429465,2020-06-08T17:46:57Z,,,,,,,,,,,,,,,,,,,,,,,,,,NA
6b27e,Loop2,flow.Loop,1_3,NA,completion,218086.58,2429466,2429478.76,2429495.42,2647582,2647583,2020-06-08T17:50:35Z,,,,,,,,,,,,,,,,,,,,,,,,,,NA
6b27e,Progress,html.Page,1_4,NA,form submission,2087.1800000002,2647583,2647584.14,2647600.82,2649688,2649689,2020-06-08T17:50:37Z,,,,,,,,,,,,,,,,,,,,,,,,,,NA
6b27e,Loop3,flow.Loop,1_5,NA,completion,168727.8,2649689,2649700.54,2649717.2,2818445,2818447,2020-06-08T17:53:26Z,,,,,,,,,,,,,,,,,,,,,,,,,,NA
6b27e,Risk_assessment,flow.Sequence,1,NA,completion,705025.9,2113390,2113402.42,2113419.1,2818445,2818447,2020-06-08T17:53:26Z,,,,,,,,,,,,,,,,,,,,,,,,,,NA
6d2f6,welcome,html.Page,0_0,NA,form submission,48570.86,1233,1242.48,1259.14,49830,49832,2020-06-05T08:11:24Z,,,,,,,,,,,,,,,,,,,,,,,,,,NA
6d2f6,dem,html.Page,0_1,NA,form submission,36650.12,49833,49833.2,49849.88,86500,86501,2020-06-05T08:12:00Z,,,,,,,,,,,,,,,,,,,,,,,,,,NA
6d2f6,BFI-10,html.Page,0_2,NA,form submission,77507.64,86502,86509.7,86526.36,164034,164035,2020-06-05T08:13:18Z,,,,,,,,,,,,,,,,,,,,,,,,,,NA
6d2f6,Dem,flow.Sequence,0,NA,completion,162774.86,1233,1242.48,1259.14,164034,164036,2020-06-05T08:13:18Z,,,,,,,,,,,,,,,,,,,,,,,,,,NA
6d2f6,SitIntro,html.Page,1_0,NA,form submission,63843,164037,164045.34,164062,227905,227906,2020-06-05T08:14:22Z,,,,,,,,,,,,,,,,,,,,,,,,,,NA
6d2f6,Loop1,flow.Loop,1_1,NA,completion,417899,227907,227916.34,227933,645832,645834,2020-06-05T08:21:20Z,,,,,,,,,,,,,,,,,,,,,,,,,,NA
6d2f6,Progress,html.Page,1_2,NA,form submission,6528.5600000001,645834,645837.78,645854.44,652383,652383,2020-06-05T08:21:26Z,,,,,,,,,,,,,,,,,,,,,,,,,,NA
6d2f6,Loop2,flow.Loop,1_3,NA,completion,364690.98,652383,652386.36,652403.02,1017094,1017094,2020-06-05T08:27:31Z,,,,,,,,,,,,,,,,,,,,,,,,,,NA
6d2f6,Progress,html.Page,1_4,NA,form submission,3407.3199999999,1017095,1017101,1017117.68,1020525,1020525,2020-06-05T08:27:34Z,,,,,,,,,,,,,,,,,,,,,,,,,,NA
6d2f6,Loop3,flow.Loop,1_5,NA,completion,337453.74,1020525,1020533.6,1020550.26,1358004,1358006,2020-06-05T08:33:12Z,,,,,,,,,,,,,,,,,,,,,,,,,,NA
6d2f6,Risk_assessment,flow.Sequence,1,NA,completion,1193942,164037,164045.34,164062,1358004,1358007,2020-06-05T08:33:12Z,,,,,,,,,,,,,,,,,,,,,,,,,,NA
70d93,welcome,html.Page,0_0,NA,form submission,4809.4019999525,1520.2849999769,1515.481,1548.973,6358.3749999525,6360.875000013,2020-06-05T11:06:54Z,,,,,,,,,,,,,,,,,,,,,,,,,,NA
70d93,dem,html.Page,0_1,NA,form submission,63309.498999965,6361.9949999265,6339.34,6406.311,69715.809999965,69716.69999999,2020-06-05T11:07:58Z,,,,,,,,,,,,,,,,,,,,,,,,,,NA
70d93,BFI-10,html.Page,0_2,NA,form submission,34363.57000003,69717.739999993,69701.696,69802.01,104165.58000003,104166.58999992,2020-06-05T11:08:32Z,,,,,,,,,,,,,,,,,,,,,,,,,,NA
70d93,Dem,flow.Sequence,0,NA,completion,102616.60700003,1520.2000000281,1515.481,1548.973,104165.58000003,104172.58499993,2020-06-05T11:08:32Z,,,,,,,,,,,,,,,,,,,,,,,,,,NA
70d93,SitIntro,html.Page,1_0,NA,form submission,57356.052000005,104173.04999998,104153.726,104204.033,161560.085,161560.47499995,2020-06-05T11:09:29Z,,,,,,,,,,,,,,,,,,,,,,,,,,NA
70d93,Loop1,flow.Loop,1_1,NA,completion,370596.75700002,161560.83500001,161556.964,161607.258,532204.01500002,532206.37999999,2020-06-05T11:15:40Z,,,,,,,,,,,,,,,,,,,,,,,,,,NA
70d93,Progress,html.Page,1_2,NA,form submission,2848.7109999213,532206.72000002,532183.124,532233.394,535082.10499992,535082.39499992,2020-06-05T11:15:43Z,,,,,,,,,,,,,,,,,,,,,,,,,,NA
70d93,Loop2,flow.Loop,1_3,NA,completion,295398.29800002,535082.57500001,535070.817,535121.152,830519.45000002,830520.40499996,2020-06-05T11:20:38Z,,,,,,,,,,,,,,,,,,,,,,,,,,NA
70d93,Progress,html.Page,1_4,NA,form submission,7201.0319999706,830520.54499998,830500.12,830550.493,837751.52499997,837752.4,2020-06-05T11:20:46Z,,,,,,,,,,,,,,,,,,,,,,,,,,NA
70d93,Loop3,flow.Loop,1_5,NA,completion,338097.38099995,837752.80999998,837744.43,837811.339,1175908.7199999,1175909.8049999,2020-06-05T11:26:24Z,,,,,,,,,,,,,,,,,,,,,,,,,,NA
70d93,Risk_assessment,flow.Sequence,1,NA,completion,1071704.6869999,104172.93,104153.726,104204.033,1175908.7199999,1175910.0649999,2020-06-05T11:26:24Z,,,,,,,,,,,,,,,,,,,,,,,,,,NA
70d93,vp,html.Page,2_0_0,NA,form submission,380926.45799992,1175910.5199999,1175904.759,1175955.167,1556881.6249999,1556884.52,2020-06-05T11:32:45Z,,,,,,,,,,,,,,,,,,,,,,,,,,static/3.jpeg
70d93,loop,flow.Loop,2_0,NA,completion,380926.45799992,1175910.4599999,1175904.759,1175955.167,1556881.6249999,1556887.195,2020-06-05T11:32:45Z,,,,,,,,,,,,,,,,,,,,,,,,,,NA
9445e,welcome,html.Page,0_0,NA,form submission,2549912.4,1233,1249,1298.6,2551211,2551214,2020-06-23T10:38:04Z,,,,,,,,,,,,,,,,,,,,,,,,,,NA
95d42,welcome,html.Page,0_0,NA,form submission,107106.12,808,818.2,834.88,107941,107942,2020-06-23T14:16:04Z,,,,,,,,,,,,,,,,,,,,,,,,,,NA
95d42,dem,html.Page,0_1,NA,form submission,76558.28,107943,107942.08,107958.72,184517,184518,2020-06-23T14:17:21Z,,,,,,,,,,,,,,,,,,,,,,,,,,NA
95d42,BFI-10,html.Page,0_2,NA,form submission,44664.72,184520,184523.46,184573.28,229238,229240,2020-06-23T14:18:06Z,,,,,,,,,,,,,,,,,,,,,,,,,,NA
95d42,Dem,flow.Sequence,0,NA,completion,228403.12,807,818.2,834.88,229238,229242,2020-06-23T14:18:06Z,,,,,,,,,,,,,,,,,,,,,,,,,,NA
95d42,SitIntro,html.Page,1_0,NA,form submission,69083.5,229243,229245.84,229262.5,298346,298347,2020-06-23T14:19:15Z,,,,,,,,,,,,,,,,,,,,,,,,,,NA
95d42,Loop1,flow.Loop,1_1,NA,completion,379781.42,298348,298345.66,298395.58,678177,678180,2020-06-23T14:25:35Z,,,,,,,,,,,,,,,,,,,,,,,,,,NA
95d42,Progress,html.Page,1_2,NA,form submission,6462.1800000001,678180,678186.26,678202.82,684665,684666,2020-06-23T14:25:41Z,,,,,,,,,,,,,,,,,,,,,,,,,,NA
95d42,Loop2,flow.Loop,1_3,NA,completion,422604.74,684668,684667.94,684701.26,1107306,1107309,2020-06-23T14:32:44Z,,,,,,,,,,,,,,,,,,,,,,,,,,NA
95d42,Progress,html.Page,1_4,NA,form submission,6454.5800000001,1107309,1107314.74,1107331.42,1113786,1113786,2020-06-23T14:32:50Z,,,,,,,,,,,,,,,,,,,,,,,,,,NA
95d42,Loop3,flow.Loop,1_5,NA,completion,327577.18,1113787,1113796.86,1113829.82,1441407,1441408,2020-06-23T14:38:18Z,,,,,,,,,,,,,,,,,,,,,,,,,,NA
95d42,Risk_assessment,flow.Sequence,1,NA,completion,1212144.5,229243,229245.84,229262.5,1441407,1441409,2020-06-23T14:38:18Z,,,,,,,,,,,,,,,,,,,,,,,,,,NA
95d42,vp,html.Page,2_0_0,NA,form submission,23201.78,1441410,1441416.62,1441433.22,1464635,1464636,2020-06-23T14:38:41Z,,,,,,,,,,,,,,,,,,,,,,,,,,static/2.jpeg
95d42,loop,flow.Loop,2_0,NA,completion,23201.78,1441410,1441416.62,1441433.22,1464635,1464638,2020-06-23T14:38:41Z,,,,,,,,,,,,,,,,,,,,,,,,,,NA
97f94,welcome,html.Page,0_0,NA,form submission,339791.68,964,965.18,982.32,340774,340776,2020-06-03T16:14:45Z,,,,,,,,,,,,,,,,,,,,,,,,,,NA
97f94,dem,html.Page,0_1,NA,form submission,236695.18,340777,340763.12,341090.82,577786,577788,2020-06-03T16:18:42Z,,,,,,,,,,,,,,,,,,,,,,,,,,NA
97f94,BFI-10,html.Page,0_2,NA,form submission,108999.6,577788,577789.1,577806.4,686806,686807,2020-06-03T16:20:31Z,,,,,,,,,,,,,,,,,,,,,,,,,,NA
97f94,Dem,flow.Sequence,0,NA,completion,685823.68,964,965.18,982.32,686806,686809,2020-06-03T16:20:31Z,,,,,,,,,,,,,,,,,,,,,,,,,,NA
97f94,SitIntro,html.Page,1_0,NA,form submission,123001.94,686810,686814.36,686831.06,809833,809834,2020-06-03T16:22:34Z,,,,,,,,,,,,,,,,,,,,,,,,,,NA
97f94,Loop1,flow.Loop,1_1,NA,completion,496261.4,809834,809831.42,809858.6,1306120,1306123,2020-06-03T16:30:50Z,,,,,,,,,,,,,,,,,,,,,,,,,,NA
97f94,Progress,html.Page,1_2,NA,form submission,5971.0800000001,1306124,1306118.4,1306150.92,1312122,1312123,2020-06-03T16:30:56Z,,,,,,,,,,,,,,,,,,,,,,,,,,NA
97f94,Loop2,flow.Loop,1_3,NA,completion,377914.96,1312123,1312120.18,1312151.04,1690066,1690069,2020-06-03T16:37:14Z,,,,,,,,,,,,,,,,,,,,,,,,,,NA
97f94,Progress,html.Page,1_4,NA,form submission,8831.1200000001,1690069,1690064.8,1690092.88,1698924,1698925,2020-06-03T16:37:23Z,,,,,,,,,,,,,,,,,,,,,,,,,,NA
97f94,Loop3,flow.Loop,1_5,NA,completion,313283.28,1698925,1698923.18,1698950.72,2012234,2012236,2020-06-03T16:42:36Z,,,,,,,,,,,,,,,,,,,,,,,,,,NA
97f94,Risk_assessment,flow.Sequence,1,NA,completion,1325402.94,686810,686814.36,686831.06,2012234,2012236,2020-06-03T16:42:36Z,,,,,,,,,,,,,,,,,,,,,,,,,,NA
97f94,vp,html.Page,2_0_0,NA,form submission,103827.7,2012236,2012226.38,2012253.3,2116081,2116081,2020-06-03T16:44:20Z,,,,,,,,,,,,,,,,,,,,,,,,,,static/2.jpeg
97f94,loop,flow.Loop,2_0,NA,completion,103827.7,2012236,2012226.38,2012253.3,2116081,2116082,2020-06-03T16:44:20Z,,,,,,,,,,,,,,,,,,,,,,,,,,NA
a3e09,welcome,html.Page,0_0,NA,form submission,264660,1516,1528,1535,266195,266200,2020-06-05T18:19:50Z,,,,,,,,,,,,,,,,,,,,,,,,,,NA
a3e09,dem,html.Page,0_1,NA,form submission,50995,266203,266213,266228,317223,317225,2020-06-05T18:20:41Z,,,,,,,,,,,,,,,,,,,,,,,,,,NA
a3e09,BFI-10,html.Page,0_2,NA,form submission,88941,317228,317244,317282,406223,406225,2020-06-05T18:22:10Z,,,,,,,,,,,,,,,,,,,,,,,,,,NA
a3e09,Dem,flow.Sequence,0,NA,completion,404688,1516,1528,1535,406223,406227,2020-06-05T18:22:10Z,,,,,,,,,,,,,,,,,,,,,,,,,,NA
a3e09,SitIntro,html.Page,1_0,NA,form submission,81693,406229,406236,406246,487939,487941,2020-06-05T18:23:31Z,,,,,,,,,,,,,,,,,,,,,,,,,,NA
a3e09,Loop1,flow.Loop,1_1,NA,completion,532090,487943,487953,487999,1020089,1020092,2020-06-05T18:32:23Z,,,,,,,,,,,,,,,,,,,,,,,,,,NA
a3e09,Progress,html.Page,1_2,NA,form submission,9679.0000000001,1020093,1020097,1020105,1029784,1029786,2020-06-05T18:32:33Z,,,,,,,,,,,,,,,,,,,,,,,,,,NA
a3e09,Loop2,flow.Loop,1_3,NA,completion,472529,1029787,1029795,1029834,1502363,1502366,2020-06-05T18:40:26Z,,,,,,,,,,,,,,,,,,,,,,,,,,NA
a3e09,Progress,html.Page,1_4,NA,form submission,4192,1502367,1502373,1502380,1506572,1506573,2020-06-05T18:40:30Z,,,,,,,,,,,,,,,,,,,,,,,,,,NA
a3e09,Loop3,flow.Loop,1_5,NA,completion,352778,1506574,1506582,1506631,1859409,1859412,2020-06-05T18:46:23Z,,,,,,,,,,,,,,,,,,,,,,,,,,NA
a3e09,Risk_assessment,flow.Sequence,1,NA,completion,1453163,406228,406236,406246,1859409,1859413,2020-06-05T18:46:23Z,,,,,,,,,,,,,,,,,,,,,,,,,,NA
a3e09,vp,html.Page,2_0_0,NA,form submission,47969,1859414,1859420,1859432,1907401,1907402,2020-06-05T18:47:11Z,,,,,,,,,,,,,,,,,,,,,,,,,,static/4.jpeg
a3e09,loop,flow.Loop,2_0,NA,completion,47969,1859414,1859420,1859432,1907401,1907403,2020-06-05T18:47:11Z,,,,,,,,,,,,,,,,,,,,,,,,,,NA
a83a0,welcome,html.Page,0_0,NA,form submission,98265.269999955,1241.3200000301,1235.161,1318.46,99583.729999955,99584.210000001,2020-06-07T13:19:57Z,,,,,,,,,,,,,,,,,,,,,,,,,,NA
a83a0,dem,html.Page,0_1,NA,form submission,37333.248999989,99584.529999993,99571.085,99604.326,136937.57499999,136937.87000002,2020-06-07T13:20:34Z,,,,,,,,,,,,,,,,,,,,,,,,,,NA
a83a0,BFI-10,html.Page,0_2,NA,form submission,37786.80500003,136938.20500001,136926.275,136975.965,174762.77000003,174763.06499995,2020-06-07T13:21:12Z,,,,,,,,,,,,,,,,,,,,,,,,,,NA
a83a0,Dem,flow.Sequence,0,NA,completion,173444.31000003,1241.2900000345,1235.161,1318.46,174762.77000003,174765.18500003,2020-06-07T13:21:12Z,,,,,,,,,,,,,,,,,,,,,,,,,,NA
a83a0,SitIntro,html.Page,1_0,NA,form submission,51191.324000023,174765.37499996,174747.808,174780.976,225972.30000002,225972.52499999,2020-06-07T13:22:03Z,,,,,,,,,,,,,,,,,,,,,,,,,,NA
a83a0,Loop1,flow.Loop,1_1,NA,completion,259837.59099994,225972.68000001,225965.018,225998.109,485835.69999994,485836.49000002,2020-06-07T13:26:23Z,,,,,,,,,,,,,,,,,,,,,,,,,,NA
a83a0,Progress,html.Page,1_2,NA,form submission,4399.5290000015,485836.58999996,485833.455,485850.196,490249.725,490249.89500002,2020-06-07T13:26:28Z,,,,,,,,,,,,,,,,,,,,,,,,,,NA
a83a0,Loop2,flow.Loop,1_3,NA,completion,207312.85599997,490250.02499996,490248.948,490282.144,697594.99999997,697595.54999997,2020-06-07T13:29:55Z,,,,,,,,,,,,,,,,,,,,,,,,,,NA
a83a0,Progress,html.Page,1_4,NA,form submission,3941.8699999396,697595.63999996,697600.639,697617.335,701559.20499994,701559.37999999,2020-06-07T13:29:59Z,,,,,,,,,,,,,,,,,,,,,,,,,,NA
a83a0,Loop3,flow.Loop,1_5,NA,completion,191483.625,701559.50500001,701565.914,701582.59,893066.215,893066.75500004,2020-06-07T13:33:10Z,,,,,,,,,,,,,,,,,,,,,,,,,,NA
a83a0,Risk_assessment,flow.Sequence,1,NA,completion,718285.239,174765.32999997,174747.808,174780.976,893066.215,893066.87999994,2020-06-07T13:33:10Z,,,,,,,,,,,,,,,,,,,,,,,,,,NA
a83a0,vp,html.Page,2_0_0,NA,form submission,213183.24900003,893067.01999996,893056.284,893089.351,1106272.6,1106272.935,2020-06-07T13:36:44Z,,,,,,,,,,,,,,,,,,,,,,,,,,static/5.jpeg
a83a0,loop,flow.Loop,2_0,NA,completion,213183.24900003,893066.98499992,893056.284,893089.351,1106272.6,1106273.25,2020-06-07T13:36:44Z,,,,,,,,,,,,,,,,,,,,,,,,,,NA
b06a8,welcome,html.Page,0_0,NA,form submission,111202.38,12619,12628.24,12661.62,123864,123868,2020-06-05T09:07:56Z,,,,,,,,,,,,,,,,,,,,,,,,,,NA
b06a8,dem,html.Page,0_1,NA,form submission,45697.4,123874,123867.24,123900.6,169598,169600,2020-06-05T09:08:42Z,,,,,,,,,,,,,,,,,,,,,,,,,,NA
b06a8,BFI-10,html.Page,0_2,NA,form submission,55399.86,169603,169601.1,169651.14,225051,225053,2020-06-05T09:09:37Z,,,,,,,,,,,,,,,,,,,,,,,,,,NA
b06a8,Dem,flow.Sequence,0,NA,completion,212389.38,12618,12628.24,12661.62,225051,225055,2020-06-05T09:09:37Z,,,,,,,,,,,,,,,,,,,,,,,,,,NA
b06a8,SitIntro,html.Page,1_0,NA,form submission,85423.7,225057,225045.62,225062.3,310486,310487,2020-06-05T09:11:03Z,,,,,,,,,,,,,,,,,,,,,,,,,,NA
b06a8,Loop1,flow.Loop,1_1,NA,completion,346431.42,310489,310489.52,310539.58,656971,656976,2020-06-05T09:16:49Z,,,,,,,,,,,,,,,,,,,,,,,,,,NA
b06a8,Progress,html.Page,1_2,NA,form submission,6436.84,656976,656971.46,656988.16,663425,663427,2020-06-05T09:16:55Z,,,,,,,,,,,,,,,,,,,,,,,,,,NA
b06a8,Loop2,flow.Loop,1_3,NA,completion,258096.56,663428,663428.38,663478.44,921575,921577,2020-06-05T09:21:14Z,,,,,,,,,,,,,,,,,,,,,,,,,,NA
b06a8,Progress,html.Page,1_4,NA,form submission,6584.86,921577,921579.46,921596.14,928181,928181,2020-06-05T09:21:20Z,,,,,,,,,,,,,,,,,,,,,,,,,,NA
b06a8,Loop3,flow.Loop,1_5,NA,completion,298936.52,928182,928186.74,928253.48,1227190,1227192,2020-06-05T09:26:19Z,,,,,,,,,,,,,,,,,,,,,,,,,,NA
b06a8,Risk_assessment,flow.Sequence,1,NA,completion,1002127.7,225057,225045.62,225062.3,1227190,1227192,2020-06-05T09:26:19Z,,,,,,,,,,,,,,,,,,,,,,,,,,NA
b06a8,vp,html.Page,2_0_0,NA,form submission,303502.86,1227192,1227199.46,1227216.14,1530719,1530723,2020-06-05T09:31:23Z,,,,,,,,,,,,,,,,,,,,,,,,,,static/2.jpeg
b06a8,loop,flow.Loop,2_0,NA,completion,303502.86,1227192,1227199.46,1227216.14,1530719,1530729,2020-06-05T09:31:23Z,,,,,,,,,,,,,,,,,,,,,,,,,,NA
be4d3,welcome,html.Page,0_0,NA,form submission,48835,7730,7761,7787,56622,56625,2020-06-07T09:56:47Z,,,,,,,,,,,,,,,,,,,,,,,,,,NA
be4d3,dem,html.Page,0_1,NA,form submission,113924,56628,56658,56697,170621,170622,2020-06-07T09:58:41Z,,,,,,,,,,,,,,,,,,,,,,,,,,NA
be4d3,BFI-10,html.Page,0_2,NA,form submission,70495,170623,170649,170684,241179,241180,2020-06-07T09:59:51Z,,,,,,,,,,,,,,,,,,,,,,,,,,NA
be4d3,Dem,flow.Sequence,0,NA,completion,233392,7730,7761,7787,241179,241182,2020-06-07T09:59:51Z,,,,,,,,,,,,,,,,,,,,,,,,,,NA
be4d3,SitIntro,html.Page,1_0,NA,form submission,24122,241183,241192,241203,265325,265326,2020-06-07T10:00:16Z,,,,,,,,,,,,,,,,,,,,,,,,,,NA
d0dc1,welcome,html.Page,0_0,NA,form submission,77848,1035,1047,1066,78914,78915,2020-06-05T10:38:17Z,,,,,,,,,,,,,,,,,,,,,,,,,,NA
d0dc1,dem,html.Page,0_1,NA,form submission,48300,78915,78924,78942,127242,127243,2020-06-05T10:39:05Z,,,,,,,,,,,,,,,,,,,,,,,,,,NA
d0dc1,BFI-10,html.Page,0_2,NA,form submission,47420,127243,127257,127268,174688,174689,2020-06-05T10:39:52Z,,,,,,,,,,,,,,,,,,,,,,,,,,NA
d0dc1,Dem,flow.Sequence,0,NA,completion,173622,1035,1047,1066,174688,174689,2020-06-05T10:39:52Z,,,,,,,,,,,,,,,,,,,,,,,,,,NA
d0dc1,SitIntro,html.Page,1_0,NA,form submission,47746,174689,174698,174711,222457,222458,2020-06-05T10:40:40Z,,,,,,,,,,,,,,,,,,,,,,,,,,NA
d0dc1,Loop1,flow.Loop,1_1,NA,completion,254652,222458,222474,222505,477157,477157,2020-06-05T10:44:55Z,,,,,,,,,,,,,,,,,,,,,,,,,,NA
d0dc1,Progress,html.Page,1_2,NA,form submission,3932.0000000001,477158,477163,477177,481109,481109,2020-06-05T10:44:59Z,,,,,,,,,,,,,,,,,,,,,,,,,,NA
d0dc1,Loop2,flow.Loop,1_3,NA,completion,246392,481109,481119,481147,727539,727540,2020-06-05T10:49:05Z,,,,,,,,,,,,,,,,,,,,,,,,,,NA
d0dc1,Progress,html.Page,1_4,NA,form submission,2183,727540,727548,727565,729748,729749,2020-06-05T10:49:08Z,,,,,,,,,,,,,,,,,,,,,,,,,,NA
d0dc1,Loop3,flow.Loop,1_5,NA,completion,219027,729749,729759,729784,948811,948812,2020-06-05T10:52:47Z,,,,,,,,,,,,,,,,,,,,,,,,,,NA
d0dc1,Risk_assessment,flow.Sequence,1,NA,completion,774100,174689,174698,174711,948811,948812,2020-06-05T10:52:47Z,,,,,,,,,,,,,,,,,,,,,,,,,,NA
d6b86,welcome,html.Page,0_0,NA,form submission,24396,828,835,843,25239,25240,2020-06-03T15:25:43Z,,,,,,,,,,,,,,,,,,,,,,,,,,NA
d6b86,dem,html.Page,0_1,NA,form submission,73889,25241,25248,25262,99151,99152,2020-06-03T15:26:57Z,,,,,,,,,,,,,,,,,,,,,,,,,,NA
d6b86,BFI-10,html.Page,0_2,NA,form submission,40888,99153,99172,99202,140090,140090,2020-06-03T15:27:38Z,,,,,,,,,,,,,,,,,,,,,,,,,,NA
d6b86,Dem,flow.Sequence,0,NA,completion,139247,828,835,843,140090,140092,2020-06-03T15:27:38Z,,,,,,,,,,,,,,,,,,,,,,,,,,NA
d6b86,SitIntro,html.Page,1_0,NA,form submission,32925,140093,140103,140113,173038,173039,2020-06-03T15:28:11Z,,,,,,,,,,,,,,,,,,,,,,,,,,NA
dfa44,welcome,html.Page,0_0,NA,form submission,13425.361,1816.780000001,1802.045,1868.849,15294.21,15296.920000001,2020-06-03T13:46:04Z,,,,,,,,,,,,,,,,,,,,,,,,,,NA
dfa44,dem,html.Page,0_1,NA,form submission,46410.310000001,15298.500000001,15263.99,15347.495,61757.805000001,61758.610000001,2020-06-03T13:46:51Z,,,,,,,,,,,,,,,,,,,,,,,,,,NA
dfa44,BFI-10,html.Page,0_2,NA,form submission,36879.947000003,61759.270000002,61764.755,61814.858,98694.805000003,98695.210000002,2020-06-03T13:47:28Z,,,,,,,,,,,,,,,,,,,,,,,,,,NA
dfa44,Dem,flow.Sequence,0,NA,completion,96825.956000003,1816.6799999999,1802.045,1868.849,98694.805000003,98699.060000003,2020-06-03T13:47:28Z,,,,,,,,,,,,,,,,,,,,,,,,,,NA
dfa44,SitIntro,html.Page,1_0,NA,form submission,17818.019,98699.45,98694.584,98727.986,116546.005,116546.45,2020-06-03T13:47:45Z,,,,,,,,,,,,,,,,,,,,,,,,,,NA
e099d,welcome,html.Page,0_0,NA,form submission,29466,6492,9216,9232,38698,38699,2020-06-11T19:00:16Z,,,,,,,,,,,,,,,,,,,,,,,,,,NA
e099d,dem,html.Page,0_1,NA,form submission,39525,38699,38717,38729,78254,78255,2020-06-11T19:00:56Z,,,,,,,,,,,,,,,,,,,,,,,,,,NA
e099d,BFI-10,html.Page,0_2,NA,form submission,36258,78255,78275,78285,114543,114543,2020-06-11T19:01:32Z,,,,,,,,,,,,,,,,,,,,,,,,,,NA
e099d,Dem,flow.Sequence,0,NA,completion,105311,6492,9216,9232,114543,114544,2020-06-11T19:01:32Z,,,,,,,,,,,,,,,,,,,,,,,,,,NA
e099d,SitIntro,html.Page,1_0,NA,form submission,44412,114545,114556,114564,158976,158976,2020-06-11T19:02:17Z,,,,,,,,,,,,,,,,,,,,,,,,,,NA
e099d,Loop1,flow.Loop,1_1,NA,completion,276457,158977,158991,159013,435470,435472,2020-06-11T19:06:53Z,,,,,,,,,,,,,,,,,,,,,,,,,,NA
e099d,Progress,html.Page,1_2,NA,form submission,8044,435472,435478,435488,443532,443532,2020-06-11T19:07:01Z,,,,,,,,,,,,,,,,,,,,,,,,,,NA
e099d,Loop2,flow.Loop,1_3,NA,completion,212508,443533,443545,443562,656070,656071,2020-06-11T19:10:34Z,,,,,,,,,,,,,,,,,,,,,,,,,,NA
e099d,Progress,html.Page,1_4,NA,form submission,2297,656071,656077,656095,658392,658392,2020-06-11T19:10:36Z,,,,,,,,,,,,,,,,,,,,,,,,,,NA
e099d,Loop3,flow.Loop,1_5,NA,completion,231962,658392,658404,658420,890382,890383,2020-06-11T19:14:28Z,,,,,,,,,,,,,,,,,,,,,,,,,,NA
e099d,Risk_assessment,flow.Sequence,1,NA,completion,775818,114545,114556,114564,890382,890383,2020-06-11T19:14:28Z,,,,,,,,,,,,,,,,,,,,,,,,,,NA
e2d44,welcome,html.Page,0_0,NA,form submission,3518.2650001276,1635.0850001909,1634.483,1651.15,5169.4150001276,5172.4050000776,2020-06-03T11:43:27Z,,,,,,,,,,,,,,,,,,,,,,,,,,NA
f9251,welcome,html.Page,0_0,NA,form submission,61108,860,866,879,61987,61988,2020-06-11T06:26:54Z,,,,,,,,,,,,,,,,,,,,,,,,,,NA
f9251,dem,html.Page,0_1,NA,form submission,27460,61988,61995,62013,89473,89474,2020-06-11T06:27:21Z,,,,,,,,,,,,,,,,,,,,,,,,,,NA
f9251,BFI-10,html.Page,0_2,NA,form submission,42710,89475,89512,89555,132265,132266,2020-06-11T06:28:04Z,,,,,,,,,,,,,,,,,,,,,,,,,,NA
f9251,Dem,flow.Sequence,0,NA,completion,131386,860,866,879,132265,132268,2020-06-11T06:28:04Z,,,,,,,,,,,,,,,,,,,,,,,,,,NA
f9251,SitIntro,html.Page,1_0,NA,form submission,58537,132268,132281,132287,190824,190825,2020-06-11T06:29:03Z,,,,,,,,,,,,,,,,,,,,,,,,,,NA
f9251,Loop1,flow.Loop,1_1,NA,completion,389370,190825,190845,190882,580252,580253,2020-06-11T06:35:32Z,,,,,,,,,,,,,,,,,,,,,,,,,,NA
f9251,Progress,html.Page,1_2,NA,form submission,2356,580253,580260,580267,582623,582624,2020-06-11T06:35:34Z,,,,,,,,,,,,,,,,,,,,,,,,,,NA
f9251,Loop2,flow.Loop,1_3,NA,completion,305505,582625,582644,582676,888181,888182,2020-06-11T06:40:40Z,,,,,,,,,,,,,,,,,,,,,,,,,,NA
f9251,Progress,html.Page,1_4,NA,form submission,8024,888182,888189,888197,896221,896222,2020-06-11T06:40:48Z,,,,,,,,,,,,,,,,,,,,,,,,,,NA
f9251,Loop3,flow.Loop,1_5,NA,completion,212781,896223,896244,896273,1109054,1109057,2020-06-11T06:44:21Z,,,,,,,,,,,,,,,,,,,,,,,,,,NA
f9251,Risk_assessment,flow.Sequence,1,NA,completion,976767,132268,132281,132287,1109054,1109057,2020-06-11T06:44:21Z,,,,,,,,,,,,,,,,,,,,,,,,,,NA
f9251,vp,html.Page,2_0_0,NA,form submission,51016,1109058,1109068,1109108,1160124,1160124,2020-06-11T06:45:12Z,,,,,,,,,,,,,,,,,,,,,,,,,,static/2.jpeg
f9251,loop,flow.Loop,2_0,NA,completion,51016,1109058,1109068,1109108,1160124,1160125,2020-06-11T06:45:12Z,,,,,,,,,,,,,,,,,,,,,,,,,,NA
fdced,welcome,html.Page,0_0,NA,form submission,72712,1081,1091,1099,73811,73812,2020-06-05T08:20:41Z,,,,,,,,,,,,,,,,,,,,,,,,,,NA
fdced,dem,html.Page,0_1,NA,form submission,56003,73813,73822,73844,129847,129848,2020-06-05T08:21:37Z,,,,,,,,,,,,,,,,,,,,,,,,,,NA
fdced,BFI-10,html.Page,0_2,NA,form submission,48503,129849,129869,129907,178410,178411,2020-06-05T08:22:26Z,,,,,,,,,,,,,,,,,,,,,,,,,,NA
fdced,Dem,flow.Sequence,0,NA,completion,177311,1081,1091,1099,178410,178413,2020-06-05T08:22:26Z,,,,,,,,,,,,,,,,,,,,,,,,,,NA
fdced,SitIntro,html.Page,1_0,NA,form submission,36839,178413,178424,178442,215281,215282,2020-06-05T08:23:03Z,,,,,,,,,,,,,,,,,,,,,,,,,,NA
fdced,Loop1,flow.Loop,1_1,NA,completion,1897530,215282,215305,215338,2112868,2112871,2020-06-05T09:05:07Z,,,,,,,,,,,,,,,,,,,,,,,,,,NA
fdced,Progress,html.Page,1_2,NA,form submission,6235,2112871,2112890,2112904,2119139,2119140,2020-06-05T09:05:13Z,,,,,,,,,,,,,,,,,,,,,,,,,,NA
fdced,Loop2,flow.Loop,1_3,NA,completion,489545,2119141,2119161,2119188,2608733,2608735,2020-06-05T09:13:23Z,,,,,,,,,,,,,,,,,,,,,,,,,,NA
fdced,Progress,html.Page,1_4,NA,form submission,4490,2608736,2608747,2608758,2613248,2613249,2020-06-05T09:13:28Z,,,,,,,,,,,,,,,,,,,,,,,,,,NA
fdced,Loop3,flow.Loop,1_5,NA,completion,278924,2613249,2613269,2613295,2892219,2892221,2020-06-05T09:18:06Z,,,,,,,,,,,,,,,,,,,,,,,,,,NA
fdced,Risk_assessment,flow.Sequence,1,NA,completion,2713777,178413,178424,178442,2892219,2892222,2020-06-05T09:18:06Z,,,,,,,,,,,,,,,,,,,,,,,,,,NA
07f51,Sit,html.Page,1_3_0_0,NA,form submission,39181.344999984,691502.74999999,691491.574,691591.54,730772.88499998,730774.83500005,2020-06-11T15:07:22Z,,,,,,,,,,,,,,,,,,,,,,,,,,NA
07f51,Seq,flow.Sequence,1_3_0,NA,completion,39181.344999984,691502.65500008,691491.574,691591.54,730772.88499998,730775.425,2020-06-11T15:07:22Z,,,,,,,,,,,,,,,,,,,,,,,,,,NA
d0dc1,Sit,html.Page,1_3_8_0,NA,form submission,24974,665412,665426,665462,690436,690436,2020-06-05T10:48:28Z,,,,,,,,,,,,,,,,,,,,,,,,,,NA
d0dc1,Seq,flow.Sequence,1_3_8,NA,completion,24974,665412,665426,665462,690436,690437,2020-06-05T10:48:28Z,,,,,,,,,,,,,,,,,,,,,,,,,,NA
e099d,Sit,html.Page,1_3_2_0,NA,form submission,17950,487195,487210,487236,505186,505186,2020-06-11T19:08:03Z,,,,,,,,,,,,,,,,,,,,,,,,,,NA
e099d,Seq,flow.Sequence,1_3_2,NA,completion,17950,487195,487210,487236,505186,505187,2020-06-11T19:08:03Z,,,,,,,,,,,,,,,,,,,,,,,,,,NA
659a2,Sit,html.Page,1_3_9_0,NA,form submission,77912,980116,980135,980179,1058091,1058092,2020-06-25T22:50:23Z,,,,,,,,,,,,,,,,,,,,,,,,,,NA
659a2,Seq,flow.Sequence,1_3_9,NA,completion,77912,980116,980135,980179,1058091,1058092,2020-06-25T22:50:23Z,,,,,,,,,,,,,,,,,,,,,,,,,,NA
67719,Sit,html.Page,1_3_8_0,NA,form submission,52196,824243,824273,824290,876486,876486,2020-06-10T10:24:02Z,,,,,,,,,,,,,,,,,,,,,,,,,,NA
67719,Seq,flow.Sequence,1_3_8,NA,completion,52196,824243,824273,824290,876486,876486,2020-06-10T10:24:02Z,,,,,,,,,,,,,,,,,,,,,,,,,,NA
6b27e,Sit,html.Page,1_3_9_0,NA,form submission,31543.82,2616009,2616021.52,2616038.18,2647582,2647582,2020-06-08T17:50:35Z,,,,,,,,,,,,,,,,,,,,,,,,,,NA
6b27e,Seq,flow.Sequence,1_3_9,NA,completion,31543.82,2616009,2616021.52,2616038.18,2647582,2647583,2020-06-08T17:50:35Z,,,,,,,,,,,,,,,,,,,,,,,,,,NA
f9251,Sit,html.Page,1_3_2_0,NA,form submission,84513,640597,640613,640645,725158,725158,2020-06-11T06:37:57Z,,,,,,,,,,,,,,,,,,,,,,,,,,NA
f9251,Seq,flow.Sequence,1_3_2,NA,completion,84513,640597,640613,640645,725158,725159,2020-06-11T06:37:57Z,,,,,,,,,,,,,,,,,,,,,,,,,,NA
2f12c,Sit,html.Page,1_3_6_0,NA,form submission,29840.206000093,1215195.47,1215190.498,1215222.719,1245062.9250001,1245063.22,2020-06-19T17:04:46Z,,,,,,,,,,,,,,,,,,,,,,,,,,NA
2f12c,Seq,flow.Sequence,1_3_6,NA,completion,29840.206000093,1215195.45,1215190.498,1215222.719,1245062.9250001,1245063.43,2020-06-19T17:04:46Z,,,,,,,,,,,,,,,,,,,,,,,,,,NA
70d93,Sit,html.Page,1_3_5_0,NA,form submission,22251.533999975,665410.24499992,665400.868,665467.916,687719.44999998,687720.60499992,2020-06-05T11:18:16Z,,,,,,,,,,,,,,,,,,,,,,,,,,NA
70d93,Seq,flow.Sequence,1_3_5,NA,completion,22251.533999975,665410.17499997,665400.868,665467.916,687719.44999998,687721.46999999,2020-06-05T11:18:16Z,,,,,,,,,,,,,,,,,,,,,,,,,,NA
fdced,Sit,html.Page,1_3_1_0,NA,form submission,51573,2275396,2275408,2275433,2327006,2327007,2020-06-05T09:08:41Z,,,,,,,,,,,,,,,,,,,,,,,,,,NA
fdced,Seq,flow.Sequence,1_3_1,NA,completion,51573,2275396,2275408,2275433,2327006,2327009,2020-06-05T09:08:41Z,,,,,,,,,,,,,,,,,,,,,,,,,,NA
07f51,Sit,html.Page,1_3_8_0,NA,form submission,32411.827000016,1013670.27,1013657.038,1013740.343,1046152.17,1046154.0250001,2020-06-11T15:12:38Z,,,,,,,,,,,,,,,,,,,,,,,,,,NA
07f51,Seq,flow.Sequence,1_3_8,NA,completion,32411.827000016,1013670.1700001,1013657.038,1013740.343,1046152.17,1046154.63,2020-06-11T15:12:38Z,,,,,,,,,,,,,,,,,,,,,,,,,,NA
fdced,Sit,html.Page,1_3_5_0,NA,form submission,32079,2474294,2474318,2474344,2506423,2506425,2020-06-05T09:11:41Z,,,,,,,,,,,,,,,,,,,,,,,,,,NA
fdced,Seq,flow.Sequence,1_3_5,NA,completion,32079,2474294,2474318,2474344,2506423,2506426,2020-06-05T09:11:41Z,,,,,,,,,,,,,,,,,,,,,,,,,,NA
2250c,Sit,html.Page,1_3_1_0,NA,form submission,58721,732412,732427,732456,791177,791177,2020-06-10T13:57:17Z,,,,,,,,,,,,,,,,,,,,,,,,,,NA
2250c,Seq,flow.Sequence,1_3_1,NA,completion,58721,732412,732427,732456,791177,791177,2020-06-10T13:57:17Z,,,,,,,,,,,,,,,,,,,,,,,,,,NA
95d42,Sit,html.Page,1_3_5_0,NA,form submission,50727.96,893430,893433.7,893467.04,944195,944195,2020-06-23T14:30:01Z,,,,,,,,,,,,,,,,,,,,,,,,,,NA
95d42,Seq,flow.Sequence,1_3_5,NA,completion,50727.96,893430,893433.7,893467.04,944195,944197,2020-06-23T14:30:01Z,,,,,,,,,,,,,,,,,,,,,,,,,,NA
fdced,Sit,html.Page,1_3_9_0,NA,form submission,30819,2577864,2577889,2577914,2608733,2608734,2020-06-05T09:13:23Z,,,,,,,,,,,,,,,,,,,,,,,,,,NA
fdced,Seq,flow.Sequence,1_3_9,NA,completion,30819,2577864,2577889,2577914,2608733,2608734,2020-06-05T09:13:23Z,,,,,,,,,,,,,,,,,,,,,,,,,,NA
2250c,Sit,html.Page,1_3_4_0,NA,form submission,25909,862671,862688,862718,888627,888627,2020-06-10T13:58:55Z,,,,,,,,,,,,,,,,,,,,,,,,,,NA
2250c,Seq,flow.Sequence,1_3_4,NA,completion,25909,862671,862688,862718,888627,888627,2020-06-10T13:58:55Z,,,,,,,,,,,,,,,,,,,,,,,,,,NA
a3e09,Sit,html.Page,1_3_3_0,NA,form submission,38282,1169707,1169725,1169752,1208034,1208035,2020-06-05T18:35:31Z,,,,,,,,,,,,,,,,,,,,,,,,,,NA
a3e09,Seq,flow.Sequence,1_3_3,NA,completion,38282,1169707,1169725,1169752,1208034,1208036,2020-06-05T18:35:31Z,,,,,,,,,,,,,,,,,,,,,,,,,,NA
2f12c,Sit,html.Page,1_3_0_0,NA,form submission,48327.896999998,910908.59000001,910901.823,910933.768,959261.665,959261.925,2020-06-19T17:00:00Z,,,,,,,,,,,,,,,,,,,,,,,,,,NA
2f12c,Seq,flow.Sequence,1_3_0,NA,completion,48327.896999998,910908.56000001,910901.823,910933.768,959261.665,959262.10000005,2020-06-19T17:00:00Z,,,,,,,,,,,,,,,,,,,,,,,,,,NA
6b27e,Sit,html.Page,1_3_5_0,NA,form submission,15594.14,2524980,2524983.2,2524999.86,2540594,2540594,2020-06-08T17:48:48Z,,,,,,,,,,,,,,,,,,,,,,,,,,NA
6b27e,Seq,flow.Sequence,1_3_5,NA,completion,15594.14,2524980,2524983.2,2524999.86,2540594,2540594,2020-06-08T17:48:48Z,,,,,,,,,,,,,,,,,,,,,,,,,,NA
6d2f6,Sit,html.Page,1_3_1_0,NA,form submission,33021.74,677672,677681.6,677698.26,710720,710720,2020-06-05T08:22:25Z,,,,,,,,,,,,,,,,,,,,,,,,,,NA
6d2f6,Seq,flow.Sequence,1_3_1,NA,completion,33021.74,677672,677681.6,677698.26,710720,710720,2020-06-05T08:22:25Z,,,,,,,,,,,,,,,,,,,,,,,,,,NA
97f94,Sit,html.Page,1_3_2_0,NA,form submission,47900.96,1381621,1381616.1,1381653.04,1429554,1429555,2020-06-03T16:32:53Z,,,,,,,,,,,,,,,,,,,,,,,,,,NA
97f94,Seq,flow.Sequence,1_3_2,NA,completion,47900.96,1381621,1381616.1,1381653.04,1429554,1429555,2020-06-03T16:32:53Z,,,,,,,,,,,,,,,,,,,,,,,,,,NA
d0dc1,Sit,html.Page,1_3_5_0,NA,form submission,17503,605614,605627,605666,623169,623170,2020-06-05T10:47:21Z,,,,,,,,,,,,,,,,,,,,,,,,,,NA
d0dc1,Seq,flow.Sequence,1_3_5,NA,completion,17503,605614,605627,605666,623169,623170,2020-06-05T10:47:21Z,,,,,,,,,,,,,,,,,,,,,,,,,,NA
97f94,Sit,html.Page,1_3_0_0,NA,form submission,37559.96,1312123,1312120.18,1312151.04,1349711,1349711,2020-06-03T16:31:34Z,,,,,,,,,,,,,,,,,,,,,,,,,,NA
97f94,Seq,flow.Sequence,1_3_0,NA,completion,37559.96,1312123,1312120.18,1312151.04,1349711,1349712,2020-06-03T16:31:34Z,,,,,,,,,,,,,,,,,,,,,,,,,,NA
a83a0,Sit,html.Page,1_3_9_0,NA,form submission,17638.998999972,679921.19000002,679906.262,679956.001,697594.99999997,697595.19000002,2020-06-07T13:29:55Z,,,,,,,,,,,,,,,,,,,,,,,,,,NA
a83a0,Seq,flow.Sequence,1_3_9,NA,completion,17638.998999972,679921.14999995,679906.262,679956.001,697594.99999997,697595.40999995,2020-06-07T13:29:55Z,,,,,,,,,,,,,,,,,,,,,,,,,,NA
2250c,Sit,html.Page,1_3_7_0,NA,form submission,18281,946527,946543,946570,964851,964852,2020-06-10T14:00:11Z,,,,,,,,,,,,,,,,,,,,,,,,,,NA
2250c,Seq,flow.Sequence,1_3_7,NA,completion,18281,946527,946543,946570,964851,964852,2020-06-10T14:00:11Z,,,,,,,,,,,,,,,,,,,,,,,,,,NA
2f12c,Sit,html.Page,1_3_2_0,NA,form submission,34935.030999996,1050395.3900001,1050398.17,1050414.834,1085349.865,1085350.1650001,2020-06-19T17:02:07Z,,,,,,,,,,,,,,,,,,,,,,,,,,NA
2f12c,Seq,flow.Sequence,1_3_2,NA,completion,34935.030999996,1050395.3600001,1050398.17,1050414.834,1085349.865,1085350.405,2020-06-19T17:02:07Z,,,,,,,,,,,,,,,,,,,,,,,,,,NA
07f51,Sit,html.Page,1_3_2_0,NA,form submission,48334.712000052,770571.64500002,770552.498,770635.803,818970.51500005,818972.755,2020-06-11T15:08:50Z,,,,,,,,,,,,,,,,,,,,,,,,,,NA
07f51,Seq,flow.Sequence,1_3_2,NA,completion,48334.712000052,770571.535,770552.498,770635.803,818970.51500005,818973.63500006,2020-06-11T15:08:50Z,,,,,,,,,,,,,,,,,,,,,,,,,,NA
2f12c,Sit,html.Page,1_3_3_0,NA,form submission,43194.698000011,1085350.52,1085335.786,1085368.522,1128563.22,1128563.4700001,2020-06-19T17:02:50Z,,,,,,,,,,,,,,,,,,,,,,,,,,NA
2f12c,Seq,flow.Sequence,1_3_3,NA,completion,43194.698000011,1085350.49,1085335.786,1085368.522,1128563.22,1128563.645,2020-06-19T17:02:50Z,,,,,,,,,,,,,,,,,,,,,,,,,,NA
a83a0,Sit,html.Page,1_3_0_0,NA,form submission,30789.086000001,490250.08499995,490248.948,490282.144,521071.23,521071.41500001,2020-06-07T13:26:58Z,,,,,,,,,,,,,,,,,,,,,,,,,,NA
a83a0,Seq,flow.Sequence,1_3_0,NA,completion,30789.086000001,490250.05999999,490248.948,490282.144,521071.23,521071.62499998,2020-06-07T13:26:58Z,,,,,,,,,,,,,,,,,,,,,,,,,,NA
d0dc1,Sit,html.Page,1_3_3_0,NA,form submission,26826,557992,558005,558038,584864,584864,2020-06-05T10:46:43Z,,,,,,,,,,,,,,,,,,,,,,,,,,NA
d0dc1,Seq,flow.Sequence,1_3_3,NA,completion,26826,557992,558005,558038,584864,584864,2020-06-05T10:46:43Z,,,,,,,,,,,,,,,,,,,,,,,,,,NA
659a2,Sit,html.Page,1_3_0_0,NA,form submission,55169,664188,664207,664233,719402,719403,2020-06-25T22:44:44Z,,,,,,,,,,,,,,,,,,,,,,,,,,NA
659a2,Seq,flow.Sequence,1_3_0,NA,completion,55169,664188,664207,664233,719402,719404,2020-06-25T22:44:44Z,,,,,,,,,,,,,,,,,,,,,,,,,,NA
70d93,Sit,html.Page,1_3_4_0,NA,form submission,28284.002999934,637087.53499994,637074.945,637125.082,665409.08499993,665409.54499994,2020-06-05T11:17:53Z,,,,,,,,,,,,,,,,,,,,,,,,,,NA
70d93,Seq,flow.Sequence,1_3_4,NA,completion,28284.002999934,637087.48999995,637074.945,637125.082,665409.08499993,665409.99999992,2020-06-05T11:17:53Z,,,,,,,,,,,,,,,,,,,,,,,,,,NA
a3e09,Sit,html.Page,1_3_2_0,NA,form submission,39113,1130554,1130572,1130591,1169704,1169705,2020-06-05T18:34:53Z,,,,,,,,,,,,,,,,,,,,,,,,,,NA
a3e09,Seq,flow.Sequence,1_3_2,NA,completion,39113,1130553,1130572,1130591,1169704,1169706,2020-06-05T18:34:53Z,,,,,,,,,,,,,,,,,,,,,,,,,,NA
f9251,Sit,html.Page,1_3_7_0,NA,form submission,33869,807393,807411,807440,841309,841310,2020-06-11T06:39:53Z,,,,,,,,,,,,,,,,,,,,,,,,,,NA
f9251,Seq,flow.Sequence,1_3_7,NA,completion,33869,807393,807411,807440,841309,841311,2020-06-11T06:39:53Z,,,,,,,,,,,,,,,,,,,,,,,,,,NA
e099d,Sit,html.Page,1_3_4_0,NA,form submission,17241,535805,535823,535846,553087,553087,2020-06-11T19:08:51Z,,,,,,,,,,,,,,,,,,,,,,,,,,NA
e099d,Seq,flow.Sequence,1_3_4,NA,completion,17241,535805,535823,535846,553087,553088,2020-06-11T19:08:51Z,,,,,,,,,,,,,,,,,,,,,,,,,,NA
2250c,Sit,html.Page,1_3_0_0,NA,form submission,22657,709726,709736,709754,732411,732411,2020-06-10T13:56:18Z,,,,,,,,,,,,,,,,,,,,,,,,,,NA
2250c,Seq,flow.Sequence,1_3_0,NA,completion,22657,709726,709736,709754,732411,732411,2020-06-10T13:56:18Z,,,,,,,,,,,,,,,,,,,,,,,,,,NA
70d93,Sit,html.Page,1_3_7_0,NA,form submission,25464.430999944,705354.23499998,705344.494,705411.479,730875.90999994,730876.37999991,2020-06-05T11:18:59Z,,,,,,,,,,,,,,,,,,,,,,,,,,NA
70d93,Seq,flow.Sequence,1_3_7,NA,completion,25464.430999944,705354.18000002,705344.494,705411.479,730875.90999994,730876.82999996,2020-06-05T11:18:59Z,,,,,,,,,,,,,,,,,,,,,,,,,,NA
e099d,Sit,html.Page,1_3_1_0,NA,form submission,19353,467801,467818,467841,487194,487194,2020-06-11T19:07:45Z,,,,,,,,,,,,,,,,,,,,,,,,,,NA
e099d,Seq,flow.Sequence,1_3_1,NA,completion,19353,467801,467818,467841,487194,487195,2020-06-11T19:07:45Z,,,,,,,,,,,,,,,,,,,,,,,,,,NA
97f94,Sit,html.Page,1_3_7_0,NA,form submission,33484.24,1562608,1562604.08,1562636.76,1596121,1596122,2020-06-03T16:35:40Z,,,,,,,,,,,,,,,,,,,,,,,,,,NA
97f94,Seq,flow.Sequence,1_3_7,NA,completion,33484.24,1562607,1562604.08,1562636.76,1596121,1596123,2020-06-03T16:35:40Z,,,,,,,,,,,,,,,,,,,,,,,,,,NA
a3e09,Sit,html.Page,1_3_9_0,NA,form submission,65117,1437210,1437224,1437246,1502363,1502364,2020-06-05T18:40:26Z,,,,,,,,,,,,,,,,,,,,,,,,,,NA
a3e09,Seq,flow.Sequence,1_3_9,NA,completion,65117,1437210,1437224,1437246,1502363,1502365,2020-06-05T18:40:26Z,,,,,,,,,,,,,,,,,,,,,,,,,,NA
07f51,Sit,html.Page,1_3_6_0,NA,form submission,39139.796000069,940497.57500004,940484.849,940568.154,979707.95000007,979710.30000004,2020-06-11T15:11:31Z,,,,,,,,,,,,,,,,,,,,,,,,,,NA
07f51,Seq,flow.Sequence,1_3_6,NA,completion,39139.796000069,940497.47499998,940484.849,940568.154,979707.95000007,979711.14999999,2020-06-11T15:11:31Z,,,,,,,,,,,,,,,,,,,,,,,,,,NA
169ac,Sit,html.Page,1_3_1_0,NA,form submission,27608.4,612935,612925.52,612957.6,640566,640566,2020-06-08T08:36:32Z,,,,,,,,,,,,,,,,,,,,,,,,,,NA
169ac,Seq,flow.Sequence,1_3_1,NA,completion,27608.4,612935,612925.52,612957.6,640566,640566,2020-06-08T08:36:32Z,,,,,,,,,,,,,,,,,,,,,,,,,,NA
2250c,Sit,html.Page,1_3_6_0,NA,form submission,32778,913700,913714,913748,946526,946526,2020-06-10T13:59:52Z,,,,,,,,,,,,,,,,,,,,,,,,,,NA
2250c,Seq,flow.Sequence,1_3_6,NA,completion,32778,913700,913714,913748,946526,946527,2020-06-10T13:59:52Z,,,,,,,,,,,,,,,,,,,,,,,,,,NA
e099d,Sit,html.Page,1_3_3_0,NA,form submission,30577,505187,505204,505227,535804,535805,2020-06-11T19:08:33Z,,,,,,,,,,,,,,,,,,,,,,,,,,NA
e099d,Seq,flow.Sequence,1_3_3,NA,completion,30577,505187,505204,505227,535804,535805,2020-06-11T19:08:33Z,,,,,,,,,,,,,,,,,,,,,,,,,,NA
169ac,Sit,html.Page,1_3_0_0,NA,form submission,28746.88,584165,584157.28,584186.12,612933,612933,2020-06-08T08:36:04Z,,,,,,,,,,,,,,,,,,,,,,,,,,NA
169ac,Seq,flow.Sequence,1_3_0,NA,completion,28746.88,584164,584157.28,584186.12,612933,612934,2020-06-08T08:36:04Z,,,,,,,,,,,,,,,,,,,,,,,,,,NA
6b27e,Sit,html.Page,1_3_3_0,NA,form submission,18344.92,2489604,2489604.42,2489621.08,2507966,2507966,2020-06-08T17:48:15Z,,,,,,,,,,,,,,,,,,,,,,,,,,NA
6b27e,Seq,flow.Sequence,1_3_3,NA,completion,18344.92,2489604,2489604.42,2489621.08,2507966,2507966,2020-06-08T17:48:15Z,,,,,,,,,,,,,,,,,,,,,,,,,,NA
6d2f6,Sit,html.Page,1_3_6_0,NA,form submission,30346.16,868800,868812.46,868828.84,899175,899175,2020-06-05T08:25:33Z,,,,,,,,,,,,,,,,,,,,,,,,,,NA
6d2f6,Seq,flow.Sequence,1_3_6,NA,completion,30346.16,868799,868812.46,868828.84,899175,899175,2020-06-05T08:25:33Z,,,,,,,,,,,,,,,,,,,,,,,,,,NA
70d93,Sit,html.Page,1_3_3_0,NA,form submission,32026.60999992,605016.19499992,605009.701,605060.005,637086.61499992,637086.97499998,2020-06-05T11:17:25Z,,,,,,,,,,,,,,,,,,,,,,,,,,NA
70d93,Seq,flow.Sequence,1_3_3,NA,completion,32026.60999992,605016.14999992,605009.701,605060.005,637086.61499992,637087.33000001,2020-06-05T11:17:25Z,,,,,,,,,,,,,,,,,,,,,,,,,,NA
a83a0,Sit,html.Page,1_3_8_0,NA,form submission,12993.882999943,666907.66499995,666910.12,666926.792,679920.67499994,679920.85999995,2020-06-07T13:29:37Z,,,,,,,,,,,,,,,,,,,,,,,,,,NA
a83a0,Seq,flow.Sequence,1_3_8,NA,completion,12993.882999943,666907.63000003,666910.12,666926.792,679920.67499994,679921.06999992,2020-06-07T13:29:37Z,,,,,,,,,,,,,,,,,,,,,,,,,,NA
fdced,Sit,html.Page,1_3_6_0,NA,form submission,22840,2506427,2506453,2506478,2529318,2529319,2020-06-05T09:12:04Z,,,,,,,,,,,,,,,,,,,,,,,,,,NA
fdced,Seq,flow.Sequence,1_3_6,NA,completion,22840,2506426,2506453,2506478,2529318,2529320,2020-06-05T09:12:04Z,,,,,,,,,,,,,,,,,,,,,,,,,,NA
67719,Sit,html.Page,1_3_5_0,NA,form submission,35462,734470,734499,734501,769963,769964,2020-06-10T10:22:15Z,,,,,,,,,,,,,,,,,,,,,,,,,,NA
67719,Seq,flow.Sequence,1_3_5,NA,completion,35462,734470,734499,734501,769963,769964,2020-06-10T10:22:15Z,,,,,,,,,,,,,,,,,,,,,,,,,,NA
97f94,Sit,html.Page,1_3_9_0,NA,form submission,44675.9,1645365,1645362.36,1645390.1,1690066,1690067,2020-06-03T16:37:14Z,,,,,,,,,,,,,,,,,,,,,,,,,,NA
97f94,Seq,flow.Sequence,1_3_9,NA,completion,44675.9,1645365,1645362.36,1645390.1,1690066,1690068,2020-06-03T16:37:14Z,,,,,,,,,,,,,,,,,,,,,,,,,,NA
b06a8,Sit,html.Page,1_3_8_0,NA,form submission,29215,867045,867052.94,867103,896318,896318,2020-06-05T09:20:48Z,,,,,,,,,,,,,,,,,,,,,,,,,,NA
b06a8,Seq,flow.Sequence,1_3_8,NA,completion,29215,867044,867052.94,867103,896318,896320,2020-06-05T09:20:48Z,,,,,,,,,,,,,,,,,,,,,,,,,,NA
659a2,Sit,html.Page,1_3_6_0,NA,form submission,26784,906619,906637,906682,933466,933466,2020-06-25T22:48:18Z,,,,,,,,,,,,,,,,,,,,,,,,,,NA
659a2,Seq,flow.Sequence,1_3_6,NA,completion,26784,906619,906637,906682,933466,933468,2020-06-25T22:48:18Z,,,,,,,,,,,,,,,,,,,,,,,,,,NA
a3e09,Sit,html.Page,1_3_8_0,NA,form submission,41667,1395485,1395503,1395539,1437206,1437208,2020-06-05T18:39:21Z,,,,,,,,,,,,,,,,,,,,,,,,,,NA
a3e09,Seq,flow.Sequence,1_3_8,NA,completion,41667,1395485,1395503,1395539,1437206,1437209,2020-06-05T18:39:21Z,,,,,,,,,,,,,,,,,,,,,,,,,,NA
6d2f6,Sit,html.Page,1_3_8_0,NA,form submission,40106.74,948518,948530.6,948547.26,988654,988654,2020-06-05T08:27:03Z,,,,,,,,,,,,,,,,,,,,,,,,,,NA
6d2f6,Seq,flow.Sequence,1_3_8,NA,completion,40106.74,948518,948530.6,948547.26,988654,988654,2020-06-05T08:27:03Z,,,,,,,,,,,,,,,,,,,,,,,,,,NA
97f94,Sit,html.Page,1_3_1_0,NA,form submission,31884.18,1349712,1349706.78,1349733.82,1381618,1381619,2020-06-03T16:32:06Z,,,,,,,,,,,,,,,,,,,,,,,,,,NA
97f94,Seq,flow.Sequence,1_3_1,NA,completion,31884.18,1349712,1349706.78,1349733.82,1381618,1381621,2020-06-03T16:32:06Z,,,,,,,,,,,,,,,,,,,,,,,,,,NA
a83a0,Sit,html.Page,1_3_7_0,NA,form submission,25005.550000011,641865.41500001,641851.375,641901.42,666906.97000001,666907.23000001,2020-06-07T13:29:24Z,,,,,,,,,,,,,,,,,,,,,,,,,,NA
a83a0,Seq,flow.Sequence,1_3_7,NA,completion,25005.550000011,641865.37999997,641851.375,641901.42,666906.97000001,666907.52499993,2020-06-07T13:29:24Z,,,,,,,,,,,,,,,,,,,,,,,,,,NA
07f51,Sit,html.Page,1_3_1_0,NA,form submission,39730.080999997,730775.80499998,730754.434,730837.739,770567.82,770569.81000002,2020-06-11T15:08:02Z,,,,,,,,,,,,,,,,,,,,,,,,,,NA
07f51,Seq,flow.Sequence,1_3_1,NA,completion,39730.080999997,730775.70500004,730754.434,730837.739,770567.82,770571.22000004,2020-06-11T15:08:02Z,,,,,,,,,,,,,,,,,,,,,,,,,,NA
6b27e,Sit,html.Page,1_3_7_0,NA,form submission,19160.32,2570296,2570294.02,2570310.68,2589471,2589471,2020-06-08T17:49:37Z,,,,,,,,,,,,,,,,,,,,,,,,,,NA
6b27e,Seq,flow.Sequence,1_3_7,NA,completion,19160.32,2570296,2570294.02,2570310.68,2589471,2589471,2020-06-08T17:49:37Z,,,,,,,,,,,,,,,,,,,,,,,,,,NA
b06a8,Sit,html.Page,1_3_2_0,NA,form submission,22839.88,710960,710964.06,711014.12,733854,733855,2020-06-05T09:18:06Z,,,,,,,,,,,,,,,,,,,,,,,,,,NA
b06a8,Seq,flow.Sequence,1_3_2,NA,completion,22839.88,710960,710964.06,711014.12,733854,733857,2020-06-05T09:18:06Z,,,,,,,,,,,,,,,,,,,,,,,,,,NA
e099d,Sit,html.Page,1_3_5_0,NA,form submission,31316,553088,553104,553126,584442,584443,2020-06-11T19:09:22Z,,,,,,,,,,,,,,,,,,,,,,,,,,NA
e099d,Seq,flow.Sequence,1_3_5,NA,completion,31316,553088,553104,553126,584442,584443,2020-06-11T19:09:22Z,,,,,,,,,,,,,,,,,,,,,,,,,,NA
2f12c,Sit,html.Page,1_3_7_0,NA,form submission,25880.124999982,1245063.54,1245071.029,1245087.69,1270967.815,1270968.1150001,2020-06-19T17:05:12Z,,,,,,,,,,,,,,,,,,,,,,,,,,NA
2f12c,Seq,flow.Sequence,1_3_7,NA,completion,25880.124999982,1245063.515,1245071.029,1245087.69,1270967.815,1270968.355,2020-06-19T17:05:12Z,,,,,,,,,,,,,,,,,,,,,,,,,,NA
6d2f6,Sit,html.Page,1_3_3_0,NA,form submission,38581.04,742760,742769.3,742785.96,781367,781367,2020-06-05T08:23:35Z,,,,,,,,,,,,,,,,,,,,,,,,,,NA
6d2f6,Seq,flow.Sequence,1_3_3,NA,completion,38581.04,742760,742769.3,742785.96,781367,781368,2020-06-05T08:23:35Z,,,,,,,,,,,,,,,,,,,,,,,,,,NA
659a2,Sit,html.Page,1_3_5_0,NA,form submission,30622,875945,875964,875995,906617,906617,2020-06-25T22:47:51Z,,,,,,,,,,,,,,,,,,,,,,,,,,NA
659a2,Seq,flow.Sequence,1_3_5,NA,completion,30622,875944,875964,875995,906617,906618,2020-06-25T22:47:51Z,,,,,,,,,,,,,,,,,,,,,,,,,,NA
70d93,Sit,html.Page,1_3_6_0,NA,form submission,17568.48199999,687722.05999994,687701.208,687784.868,705353.34999999,705353.67999994,2020-06-05T11:18:33Z,,,,,,,,,,,,,,,,,,,,,,,,,,NA
70d93,Seq,flow.Sequence,1_3_6,NA,completion,17568.48199999,687721.84999997000,687701.208,687784.868,705353.34999999,705354.04000001,2020-06-05T11:18:33Z,,,,,,,,,,,,,,,,,,,,,,,,,,NA
95d42,Sit,html.Page,1_3_3_0,NA,form submission,23135.88,787839,787842.8,787876.12,811012,811014,2020-06-23T14:27:47Z,,,,,,,,,,,,,,,,,,,,,,,,,,NA
95d42,Seq,flow.Sequence,1_3_3,NA,completion,23135.88,787839,787842.8,787876.12,811012,811015,2020-06-23T14:27:47Z,,,,,,,,,,,,,,,,,,,,,,,,,,NA
d0dc1,Sit,html.Page,1_3_9_0,NA,form submission,37054,690437,690450,690485,727539,727539,2020-06-05T10:49:05Z,,,,,,,,,,,,,,,,,,,,,,,,,,NA
d0dc1,Seq,flow.Sequence,1_3_9,NA,completion,37054,690437,690450,690485,727539,727539,2020-06-05T10:49:05Z,,,,,,,,,,,,,,,,,,,,,,,,,,NA
67719,Sit,html.Page,1_3_2_0,NA,form submission,33760,631758,631787,631794,665554,665555,2020-06-10T10:20:31Z,,,,,,,,,,,,,,,,,,,,,,,,,,NA
67719,Seq,flow.Sequence,1_3_2,NA,completion,33760,631758,631787,631794,665554,665555,2020-06-10T10:20:31Z,,,,,,,,,,,,,,,,,,,,,,,,,,NA
97f94,Sit,html.Page,1_3_4_0,NA,form submission,29287.82,1467737,1467732.16,1467766.18,1497054,1497055,2020-06-03T16:34:01Z,,,,,,,,,,,,,,,,,,,,,,,,,,NA
97f94,Seq,flow.Sequence,1_3_4,NA,completion,29287.82,1467737,1467732.16,1467766.18,1497054,1497055,2020-06-03T16:34:01Z,,,,,,,,,,,,,,,,,,,,,,,,,,NA
a3e09,Sit,html.Page,1_3_0_0,NA,form submission,38566,1029788,1029795,1029834,1068400,1068401,2020-06-05T18:33:12Z,,,,,,,,,,,,,,,,,,,,,,,,,,NA
a3e09,Seq,flow.Sequence,1_3_0,NA,completion,38566,1029788,1029795,1029834,1068400,1068403,2020-06-05T18:33:12Z,,,,,,,,,,,,,,,,,,,,,,,,,,NA
95d42,Sit,html.Page,1_3_8_0,NA,form submission,48996.7,1010899,1010904.96,1010938.3,1059935,1059935,2020-06-23T14:31:56Z,,,,,,,,,,,,,,,,,,,,,,,,,,NA
95d42,Seq,flow.Sequence,1_3_8,NA,completion,48996.7,1010898,1010904.96,1010938.3,1059935,1059937,2020-06-23T14:31:56Z,,,,,,,,,,,,,,,,,,,,,,,,,,NA
d0dc1,Sit,html.Page,1_3_0_0,NA,form submission,31105,481109,481119,481147,512252,512253,2020-06-05T10:45:30Z,,,,,,,,,,,,,,,,,,,,,,,,,,NA
d0dc1,Seq,flow.Sequence,1_3_0,NA,completion,31105,481109,481119,481147,512252,512253,2020-06-05T10:45:30Z,,,,,,,,,,,,,,,,,,,,,,,,,,NA
e099d,Sit,html.Page,1_3_0_0,NA,form submission,24238,443533,443545,443562,467800,467800,2020-06-11T19:07:25Z,,,,,,,,,,,,,,,,,,,,,,,,,,NA
e099d,Seq,flow.Sequence,1_3_0,NA,completion,24238,443533,443545,443562,467800,467801,2020-06-11T19:07:25Z,,,,,,,,,,,,,,,,,,,,,,,,,,NA
2250c,Sit,html.Page,1_3_3_0,NA,form submission,29954,832684,832698,832717,862671,862671,2020-06-10T13:58:29Z,,,,,,,,,,,,,,,,,,,,,,,,,,NA
2250c,Seq,flow.Sequence,1_3_3,NA,completion,29954,832684,832698,832717,862671,862671,2020-06-10T13:58:29Z,,,,,,,,,,,,,,,,,,,,,,,,,,NA
97f94,Sit,html.Page,1_3_8_0,NA,form submission,49204.44,1596124,1596120.08,1596159.56,1645364,1645365,2020-06-03T16:36:29Z,,,,,,,,,,,,,,,,,,,,,,,,,,NA
97f94,Seq,flow.Sequence,1_3_8,NA,completion,49204.44,1596124,1596120.08,1596159.56,1645364,1645365,2020-06-03T16:36:29Z,,,,,,,,,,,,,,,,,,,,,,,,,,NA
a83a0,Sit,html.Page,1_3_3_0,NA,form submission,30244.541999982,566128.03499994,566125.099,566158.388,596402.92999998,596403.18499994,2020-06-07T13:28:14Z,,,,,,,,,,,,,,,,,,,,,,,,,,NA
a83a0,Seq,flow.Sequence,1_3_3,NA,completion,30244.541999982,566127.99499999,566125.099,566158.388,596402.92999998,596403.48500002,2020-06-07T13:28:14Z,,,,,,,,,,,,,,,,,,,,,,,,,,NA
fdced,Sit,html.Page,1_3_7_0,NA,form submission,29131,2529321,2529341,2529367,2558498,2558499,2020-06-05T09:12:33Z,,,,,,,,,,,,,,,,,,,,,,,,,,NA
fdced,Seq,flow.Sequence,1_3_7,NA,completion,29131,2529321,2529341,2529367,2558498,2558500,2020-06-05T09:12:33Z,,,,,,,,,,,,,,,,,,,,,,,,,,NA
2f12c,Sit,html.Page,1_3_5_0,NA,form submission,40148.116999996,1175018.545,1175030.193,1175046.828,1215194.945,1215195.2000001,2020-06-19T17:04:16Z,,,,,,,,,,,,,,,,,,,,,,,,,,NA
2f12c,Seq,flow.Sequence,1_3_5,NA,completion,40148.116999996,1175018.52,1175030.193,1175046.828,1215194.945,1215195.38,2020-06-19T17:04:16Z,,,,,,,,,,,,,,,,,,,,,,,,,,NA
67719,Sit,html.Page,1_3_4_0,NA,form submission,33979,700449,700483,700490,734469,734470,2020-06-10T10:21:40Z,,,,,,,,,,,,,,,,,,,,,,,,,,NA
67719,Seq,flow.Sequence,1_3_4,NA,completion,33979,700449,700483,700490,734469,734470,2020-06-10T10:21:40Z,,,,,,,,,,,,,,,,,,,,,,,,,,NA
97f94,Sit,html.Page,1_3_6_0,NA,form submission,32791.06,1529789,1529786.14,1529814.94,1562606,1562606,2020-06-03T16:35:07Z,,,,,,,,,,,,,,,,,,,,,,,,,,NA
97f94,Seq,flow.Sequence,1_3_6,NA,completion,32791.06,1529789,1529786.14,1529814.94,1562606,1562607,2020-06-03T16:35:07Z,,,,,,,,,,,,,,,,,,,,,,,,,,NA
d0dc1,Sit,html.Page,1_3_6_0,NA,form submission,24585,623170,623183,623219,647804,647804,2020-06-05T10:47:46Z,,,,,,,,,,,,,,,,,,,,,,,,,,NA
d0dc1,Seq,flow.Sequence,1_3_6,NA,completion,24585,623170,623183,623219,647804,647804,2020-06-05T10:47:46Z,,,,,,,,,,,,,,,,,,,,,,,,,,NA
e099d,Sit,html.Page,1_3_7_0,NA,form submission,15837,608397,608414,608442,624279,624279,2020-06-11T19:10:02Z,,,,,,,,,,,,,,,,,,,,,,,,,,NA
e099d,Seq,flow.Sequence,1_3_7,NA,completion,15837,608397,608414,608442,624279,624279,2020-06-11T19:10:02Z,,,,,,,,,,,,,,,,,,,,,,,,,,NA
67719,Sit,html.Page,1_3_1_0,NA,form submission,28244,603469,603509,603513,631757,631758,2020-06-10T10:19:57Z,,,,,,,,,,,,,,,,,,,,,,,,,,NA
67719,Seq,flow.Sequence,1_3_1,NA,completion,28244,603469,603509,603513,631757,631758,2020-06-10T10:19:57Z,,,,,,,,,,,,,,,,,,,,,,,,,,NA
a83a0,Sit,html.Page,1_3_2_0,NA,form submission,27127.320000029,538965.45999998,538950.487,539000.13,566127.45000003,566127.675,2020-06-07T13:27:43Z,,,,,,,,,,,,,,,,,,,,,,,,,,NA
a83a0,Seq,flow.Sequence,1_3_2,NA,completion,27127.320000029,538965.42499994,538950.487,539000.13,566127.45000003,566127.905,2020-06-07T13:27:43Z,,,,,,,,,,,,,,,,,,,,,,,,,,NA
f9251,Sit,html.Page,1_3_3_0,NA,form submission,22552,725159,725175,725202,747754,747756,2020-06-11T06:38:20Z,,,,,,,,,,,,,,,,,,,,,,,,,,NA
f9251,Seq,flow.Sequence,1_3_3,NA,completion,22552,725159,725175,725202,747754,747757,2020-06-11T06:38:20Z,,,,,,,,,,,,,,,,,,,,,,,,,,NA
659a2,Sit,html.Page,1_3_4_0,NA,form submission,52710,823177,823196,823233,875943,875944,2020-06-25T22:47:21Z,,,,,,,,,,,,,,,,,,,,,,,,,,NA
659a2,Seq,flow.Sequence,1_3_4,NA,completion,52710,823177,823196,823233,875943,875944,2020-06-25T22:47:21Z,,,,,,,,,,,,,,,,,,,,,,,,,,NA
6b27e,Sit,html.Page,1_3_8_0,NA,form submission,26516.36,2589471,2589474.98,2589491.64,2616008,2616008,2020-06-08T17:50:04Z,,,,,,,,,,,,,,,,,,,,,,,,,,NA
6b27e,Seq,flow.Sequence,1_3_8,NA,completion,26516.36,2589471,2589474.98,2589491.64,2616008,2616009,2020-06-08T17:50:04Z,,,,,,,,,,,,,,,,,,,,,,,,,,NA
67719,Sit,html.Page,1_3_9_0,NA,form submission,30582,876487,876521,876528,907110,907110,2020-06-10T10:24:32Z,,,,,,,,,,,,,,,,,,,,,,,,,,NA
67719,Seq,flow.Sequence,1_3_9,NA,completion,30582,876487,876521,876528,907110,907111,2020-06-10T10:24:32Z,,,,,,,,,,,,,,,,,,,,,,,,,,NA
07f51,Sit,html.Page,1_3_5_0,NA,form submission,47018.142000046,893419.10499998,893409.869,893476.513,940494.65500005,940496.56500004,2020-06-11T15:10:52Z,,,,,,,,,,,,,,,,,,,,,,,,,,NA
07f51,Seq,flow.Sequence,1_3_5,NA,completion,47018.142000046,893419.01000007,893409.869,893476.513,940494.65500005,940497.19500006,2020-06-11T15:10:52Z,,,,,,,,,,,,,,,,,,,,,,,,,,NA
2250c,Sit,html.Page,1_3_8_0,NA,form submission,30334,964852,964865,964895,995229,995229,2020-06-10T14:00:41Z,,,,,,,,,,,,,,,,,,,,,,,,,,NA
2250c,Seq,flow.Sequence,1_3_8,NA,completion,30334,964852,964865,964895,995229,995229,2020-06-10T14:00:41Z,,,,,,,,,,,,,,,,,,,,,,,,,,NA
2f12c,Sit,html.Page,1_3_1_0,NA,form submission,91109.798000014,959262.2,959252.51,959284.972,1050394.77,1050395.06,2020-06-19T17:01:32Z,,,,,,,,,,,,,,,,,,,,,,,,,,NA
2f12c,Seq,flow.Sequence,1_3_1,NA,completion,91109.798000014,959262.17500004,959252.51,959284.972,1050394.77,1050395.275,2020-06-19T17:01:32Z,,,,,,,,,,,,,,,,,,,,,,,,,,NA
6d2f6,Sit,html.Page,1_3_5_0,NA,form submission,48294.32,820479,820488.02,820504.68,868799,868799,2020-06-05T08:25:03Z,,,,,,,,,,,,,,,,,,,,,,,,,,NA
6d2f6,Seq,flow.Sequence,1_3_5,NA,completion,48294.32,820479,820488.02,820504.68,868799,868799,2020-06-05T08:25:03Z,,,,,,,,,,,,,,,,,,,,,,,,,,NA
70d93,Sit,html.Page,1_3_2_0,NA,form submission,23474.264999948,581480.08999997,581457.483,581541.185,605015.44999995,605015.74499998,2020-06-05T11:16:53Z,,,,,,,,,,,,,,,,,,,,,,,,,,NA
70d93,Seq,flow.Sequence,1_3_2,NA,completion,23474.264999948,581479.99499994,581457.483,581541.185,605015.44999995,605016.03499998,2020-06-05T11:16:53Z,,,,,,,,,,,,,,,,,,,,,,,,,,NA
659a2,Sit,html.Page,1_3_1_0,NA,form submission,47426,719404,719424,719462,766888,766889,2020-06-25T22:45:32Z,,,,,,,,,,,,,,,,,,,,,,,,,,NA
659a2,Seq,flow.Sequence,1_3_1,NA,completion,47426,719404,719424,719462,766888,766889,2020-06-25T22:45:32Z,,,,,,,,,,,,,,,,,,,,,,,,,,NA
95d42,Sit,html.Page,1_3_4_0,NA,form submission,82390.92,811015,811020.42,811037.08,893428,893429,2020-06-23T14:29:10Z,,,,,,,,,,,,,,,,,,,,,,,,,,NA
95d42,Seq,flow.Sequence,1_3_4,NA,completion,82390.92,811015,811020.42,811037.08,893428,893429,2020-06-23T14:29:10Z,,,,,,,,,,,,,,,,,,,,,,,,,,NA
b06a8,Sit,html.Page,1_3_9_0,NA,form submission,25206.42,896321,896318.52,896368.58,921575,921575,2020-06-05T09:21:14Z,,,,,,,,,,,,,,,,,,,,,,,,,,NA
b06a8,Seq,flow.Sequence,1_3_9,NA,completion,25206.42,896321,896318.52,896368.58,921575,921576,2020-06-05T09:21:14Z,,,,,,,,,,,,,,,,,,,,,,,,,,NA
659a2,Sit,html.Page,1_3_3_0,NA,form submission,32542,790574,790594,790634,823176,823176,2020-06-25T22:46:28Z,,,,,,,,,,,,,,,,,,,,,,,,,,NA
659a2,Seq,flow.Sequence,1_3_3,NA,completion,32542,790574,790594,790634,823176,823177,2020-06-25T22:46:28Z,,,,,,,,,,,,,,,,,,,,,,,,,,NA
659a2,Sit,html.Page,1_3_7_0,NA,form submission,25411,933468,933487,933522,958933,958935,2020-06-25T22:48:44Z,,,,,,,,,,,,,,,,,,,,,,,,,,NA
659a2,Seq,flow.Sequence,1_3_7,NA,completion,25411,933468,933487,933522,958933,958935,2020-06-25T22:48:44Z,,,,,,,,,,,,,,,,,,,,,,,,,,NA
70d93,Sit,html.Page,1_3_0_0,NA,form submission,20322.923000007,535082.65999996,535070.817,535121.152,555444.07500001,555444.93,2020-06-05T11:16:03Z,,,,,,,,,,,,,,,,,,,,,,,,,,NA
70d93,Seq,flow.Sequence,1_3_0,NA,completion,20322.923000007,535082.62999996,535070.817,535121.152,555444.07500001,555445.76999999,2020-06-05T11:16:03Z,,,,,,,,,,,,,,,,,,,,,,,,,,NA
fdced,Sit,html.Page,1_3_2_0,NA,form submission,91036,2327011,2327029,2327059,2418095,2418096,2020-06-05T09:10:12Z,,,,,,,,,,,,,,,,,,,,,,,,,,NA
fdced,Seq,flow.Sequence,1_3_2,NA,completion,91036,2327010,2327029,2327059,2418095,2418097,2020-06-05T09:10:12Z,,,,,,,,,,,,,,,,,,,,,,,,,,NA
97f94,Sit,html.Page,1_3_5_0,NA,form submission,32710.56,1497056,1497051.92,1497077.44,1529788,1529788,2020-06-03T16:34:34Z,,,,,,,,,,,,,,,,,,,,,,,,,,NA
97f94,Seq,flow.Sequence,1_3_5,NA,completion,32710.56,1497055,1497051.92,1497077.44,1529788,1529789,2020-06-03T16:34:34Z,,,,,,,,,,,,,,,,,,,,,,,,,,NA
a83a0,Sit,html.Page,1_3_5_0,NA,form submission,16918.819999978,609027.50999993,609011.897,609061.73,625980.54999998,625980.74999999,2020-06-07T13:28:43Z,,,,,,,,,,,,,,,,,,,,,,,,,,NA
a83a0,Seq,flow.Sequence,1_3_5,NA,completion,16918.819999978,609027.47500001,609011.897,609061.73,625980.54999998,625980.97999999,2020-06-07T13:28:43Z,,,,,,,,,,,,,,,,,,,,,,,,,,NA
fdced,Sit,html.Page,1_3_4_0,NA,form submission,33164,2441079,2441102,2441127,2474291,2474292,2020-06-05T09:11:09Z,,,,,,,,,,,,,,,,,,,,,,,,,,NA
fdced,Seq,flow.Sequence,1_3_4,NA,completion,33164,2441079,2441102,2441127,2474291,2474293,2020-06-05T09:11:09Z,,,,,,,,,,,,,,,,,,,,,,,,,,NA
2250c,Sit,html.Page,1_3_5_0,NA,form submission,25042,888627,888642,888657,913699,913699,2020-06-10T13:59:20Z,,,,,,,,,,,,,,,,,,,,,,,,,,NA
2250c,Seq,flow.Sequence,1_3_5,NA,completion,25042,888627,888642,888657,913699,913700,2020-06-10T13:59:20Z,,,,,,,,,,,,,,,,,,,,,,,,,,NA
6b27e,Sit,html.Page,1_3_4_0,NA,form submission,16993.68,2507967,2507968.66,2507985.32,2524979,2524979,2020-06-08T17:48:32Z,,,,,,,,,,,,,,,,,,,,,,,,,,NA
6b27e,Seq,flow.Sequence,1_3_4,NA,completion,16993.68,2507967,2507968.66,2507985.32,2524979,2524980,2020-06-08T17:48:32Z,,,,,,,,,,,,,,,,,,,,,,,,,,NA
a3e09,Sit,html.Page,1_3_6_0,NA,form submission,32873,1323488,1323500,1323524,1356397,1356398,2020-06-05T18:38:00Z,,,,,,,,,,,,,,,,,,,,,,,,,,NA
a3e09,Seq,flow.Sequence,1_3_6,NA,completion,32873,1323488,1323500,1323524,1356397,1356399,2020-06-05T18:38:00Z,,,,,,,,,,,,,,,,,,,,,,,,,,NA
b06a8,Sit,html.Page,1_3_6_0,NA,form submission,18631.04,816076,816079.92,816129.96,834761,834762,2020-06-05T09:19:47Z,,,,,,,,,,,,,,,,,,,,,,,,,,NA
b06a8,Seq,flow.Sequence,1_3_6,NA,completion,18631.04,816076,816079.92,816129.96,834761,834764,2020-06-05T09:19:47Z,,,,,,,,,,,,,,,,,,,,,,,,,,NA
b06a8,Sit,html.Page,1_3_0_0,NA,form submission,26461.56,663428,663428.38,663478.44,689940,689941,2020-06-05T09:17:22Z,,,,,,,,,,,,,,,,,,,,,,,,,,NA
b06a8,Seq,flow.Sequence,1_3_0,NA,completion,26461.56,663428,663428.38,663478.44,689940,689941,2020-06-05T09:17:22Z,,,,,,,,,,,,,,,,,,,,,,,,,,NA
07f51,Sit,html.Page,1_3_4_0,NA,form submission,36559.58500005,856799.85499999,856790.011,856856.655,893416.24000005,893418.15499996,2020-06-11T15:10:05Z,,,,,,,,,,,,,,,,,,,,,,,,,,NA
07f51,Seq,flow.Sequence,1_3_4,NA,completion,36559.58500005,856799.75500004,856790.011,856856.655,893416.24000005,893418.75000007,2020-06-11T15:10:05Z,,,,,,,,,,,,,,,,,,,,,,,,,,NA
95d42,Sit,html.Page,1_3_7_0,NA,form submission,43581.4,967290,967299.22,967315.6,1010897,1010897,2020-06-23T14:31:07Z,,,,,,,,,,,,,,,,,,,,,,,,,,NA
95d42,Seq,flow.Sequence,1_3_7,NA,completion,43581.4,967290,967299.22,967315.6,1010897,1010897,2020-06-23T14:31:07Z,,,,,,,,,,,,,,,,,,,,,,,,,,NA
07f51,Sit,html.Page,1_3_3_0,NA,form submission,37764.413999982,818974.15500006,818949.276,819032.581,856796.99499998,856798.91000001,2020-06-11T15:09:28Z,,,,,,,,,,,,,,,,,,,,,,,,,,NA
07f51,Seq,flow.Sequence,1_3_3,NA,completion,37764.413999982,818973.97000005,818949.276,819032.581,856796.99499998,856799.48499997,2020-06-11T15:09:28Z,,,,,,,,,,,,,,,,,,,,,,,,,,NA
f9251,Sit,html.Page,1_3_1_0,NA,form submission,38265,602290,602304,602331,640596,640596,2020-06-11T06:36:32Z,,,,,,,,,,,,,,,,,,,,,,,,,,NA
f9251,Seq,flow.Sequence,1_3_1,NA,completion,38265,602289,602304,602331,640596,640596,2020-06-11T06:36:32Z,,,,,,,,,,,,,,,,,,,,,,,,,,NA
2f12c,Sit,html.Page,1_3_9_0,NA,form submission,46701.759999987,1341243.7550001,1341224.205,1341272.905,1387974.665,1387974.9650001,2020-06-19T17:07:09Z,,,,,,,,,,,,,,,,,,,,,,,,,,NA
2f12c,Seq,flow.Sequence,1_3_9,NA,completion,46701.759999987,1341243.73,1341224.205,1341272.905,1387974.665,1387975.1800001,2020-06-19T17:07:09Z,,,,,,,,,,,,,,,,,,,,,,,,,,NA
67719,Sit,html.Page,1_3_7_0,NA,form submission,33121,791077,791106,791122,824243,824243,2020-06-10T10:23:09Z,,,,,,,,,,,,,,,,,,,,,,,,,,NA
67719,Seq,flow.Sequence,1_3_7,NA,completion,33121,791077,791106,791122,824243,824243,2020-06-10T10:23:09Z,,,,,,,,,,,,,,,,,,,,,,,,,,NA
b06a8,Sit,html.Page,1_3_3_0,NA,form submission,28269.82,733858,733856.14,733906.18,762176,762177,2020-06-05T09:18:34Z,,,,,,,,,,,,,,,,,,,,,,,,,,NA
b06a8,Seq,flow.Sequence,1_3_3,NA,completion,28269.82,733858,733856.14,733906.18,762176,762178,2020-06-05T09:18:34Z,,,,,,,,,,,,,,,,,,,,,,,,,,NA
d0dc1,Sit,html.Page,1_3_2_0,NA,form submission,28281,529658,529671,529710,557991,557992,2020-06-05T10:46:16Z,,,,,,,,,,,,,,,,,,,,,,,,,,NA
d0dc1,Seq,flow.Sequence,1_3_2,NA,completion,28281,529657,529671,529710,557991,557992,2020-06-05T10:46:16Z,,,,,,,,,,,,,,,,,,,,,,,,,,NA
659a2,Sit,html.Page,1_3_8_0,NA,form submission,21120,958935,958954,958995,980115,980116,2020-06-25T22:49:05Z,,,,,,,,,,,,,,,,,,,,,,,,,,NA
659a2,Seq,flow.Sequence,1_3_8,NA,completion,21120,958935,958954,958995,980115,980116,2020-06-25T22:49:05Z,,,,,,,,,,,,,,,,,,,,,,,,,,NA
f9251,Sit,html.Page,1_3_6_0,NA,form submission,14661,792684,792701,792730,807391,807392,2020-06-11T06:39:19Z,,,,,,,,,,,,,,,,,,,,,,,,,,NA
f9251,Seq,flow.Sequence,1_3_6,NA,completion,14661,792684,792701,792730,807391,807393,2020-06-11T06:39:19Z,,,,,,,,,,,,,,,,,,,,,,,,,,NA
2250c,Sit,html.Page,1_3_2_0,NA,form submission,41475,791177,791190,791209,832684,832684,2020-06-10T13:57:59Z,,,,,,,,,,,,,,,,,,,,,,,,,,NA
2250c,Seq,flow.Sequence,1_3_2,NA,completion,41475,791177,791190,791209,832684,832684,2020-06-10T13:57:59Z,,,,,,,,,,,,,,,,,,,,,,,,,,NA
b06a8,Sit,html.Page,1_3_5_0,NA,form submission,23035.96,792995,792987.98,793038.04,816074,816075,2020-06-05T09:19:28Z,,,,,,,,,,,,,,,,,,,,,,,,,,NA
b06a8,Seq,flow.Sequence,1_3_5,NA,completion,23035.96,792995,792987.98,793038.04,816074,816076,2020-06-05T09:19:28Z,,,,,,,,,,,,,,,,,,,,,,,,,,NA
e099d,Sit,html.Page,1_3_6_0,NA,form submission,23913,584443,584458,584484,608397,608397,2020-06-11T19:09:46Z,,,,,,,,,,,,,,,,,,,,,,,,,,NA
e099d,Seq,flow.Sequence,1_3_6,NA,completion,23913,584443,584458,584484,608397,608397,2020-06-11T19:09:46Z,,,,,,,,,,,,,,,,,,,,,,,,,,NA
f9251,Sit,html.Page,1_3_5_0,NA,form submission,17402,775226,775247,775278,792680,792681,2020-06-11T06:39:05Z,,,,,,,,,,,,,,,,,,,,,,,,,,NA
f9251,Seq,flow.Sequence,1_3_5,NA,completion,17402,775226,775247,775278,792680,792683,2020-06-11T06:39:05Z,,,,,,,,,,,,,,,,,,,,,,,,,,NA
6d2f6,Sit,html.Page,1_3_4_0,NA,form submission,39082.6,781368,781378.74,781395.4,820478,820479,2020-06-05T08:24:14Z,,,,,,,,,,,,,,,,,,,,,,,,,,NA
6d2f6,Seq,flow.Sequence,1_3_4,NA,completion,39082.6,781368,781378.74,781395.4,820478,820479,2020-06-05T08:24:14Z,,,,,,,,,,,,,,,,,,,,,,,,,,NA
70d93,Sit,html.Page,1_3_9_0,NA,form submission,67604.507000022,762855.42499996,762831.338,762914.943,830519.45000002,830519.86499992,2020-06-05T11:20:38Z,,,,,,,,,,,,,,,,,,,,,,,,,,NA
70d93,Seq,flow.Sequence,1_3_9,NA,completion,67604.507000022,762855.31000001,762831.338,762914.943,830519.45000002,830520.20499995,2020-06-05T11:20:38Z,,,,,,,,,,,,,,,,,,,,,,,,,,NA
95d42,Sit,html.Page,1_3_9_0,NA,form submission,47329.72,1059937,1059943.1,1059976.28,1107306,1107307,2020-06-23T14:32:44Z,,,,,,,,,,,,,,,,,,,,,,,,,,NA
95d42,Seq,flow.Sequence,1_3_9,NA,completion,47329.72,1059937,1059943.1,1059976.28,1107306,1107308,2020-06-23T14:32:44Z,,,,,,,,,,,,,,,,,,,,,,,,,,NA
07f51,Sit,html.Page,1_3_9_0,NA,form submission,16439.552000023,1046155.01,1046143.544,1046210.188,1062649.74,1062651.6400001,2020-06-11T15:12:54Z,,,,,,,,,,,,,,,,,,,,,,,,,,NA
07f51,Seq,flow.Sequence,1_3_9,NA,completion,16439.552000023,1046154.905,1046143.544,1046210.188,1062649.74,1062652.25,2020-06-11T15:12:54Z,,,,,,,,,,,,,,,,,,,,,,,,,,NA
659a2,Sit,html.Page,1_3_2_0,NA,form submission,23633,766889,766907,766940,790573,790574,2020-06-25T22:45:55Z,,,,,,,,,,,,,,,,,,,,,,,,,,NA
659a2,Seq,flow.Sequence,1_3_2,NA,completion,23633,766889,766907,766940,790573,790574,2020-06-25T22:45:55Z,,,,,,,,,,,,,,,,,,,,,,,,,,NA
95d42,Sit,html.Page,1_3_2_0,NA,form submission,40417.72,747380,747385.98,747419.28,787837,787838,2020-06-23T14:27:24Z,,,,,,,,,,,,,,,,,,,,,,,,,,NA
95d42,Seq,flow.Sequence,1_3_2,NA,completion,40417.72,747379,747385.98,747419.28,787837,787838,2020-06-23T14:27:24Z,,,,,,,,,,,,,,,,,,,,,,,,,,NA
a83a0,Sit,html.Page,1_3_4_0,NA,form submission,12594.81499993,596403.62500004,596399.165,596432.145,609026.95999993,609027.17000002,2020-06-07T13:28:26Z,,,,,,,,,,,,,,,,,,,,,,,,,,NA
a83a0,Seq,flow.Sequence,1_3_4,NA,completion,12594.81499993,596403.59500004,596399.165,596432.145,609026.95999993,609027.38500002,2020-06-07T13:28:26Z,,,,,,,,,,,,,,,,,,,,,,,,,,NA
e099d,Sit,html.Page,1_3_9_0,NA,form submission,16107,639922,639937,639963,656070,656070,2020-06-11T19:10:34Z,,,,,,,,,,,,,,,,,,,,,,,,,,NA
e099d,Seq,flow.Sequence,1_3_9,NA,completion,16107,639922,639937,639963,656070,656071,2020-06-11T19:10:34Z,,,,,,,,,,,,,,,,,,,,,,,,,,NA
169ac,Sit,html.Page,1_3_2_0,NA,form submission,31050.02,640567,640557.52,640594.98,671645,671646,2020-06-08T08:37:03Z,,,,,,,,,,,,,,,,,,,,,,,,,,NA
169ac,Seq,flow.Sequence,1_3_2,NA,completion,31050.02,640567,640557.52,640594.98,671645,671646,2020-06-08T08:37:03Z,,,,,,,,,,,,,,,,,,,,,,,,,,NA
2250c,Sit,html.Page,1_3_9_0,NA,form submission,19325,995230,995244,995262,1014587,1014587,2020-06-10T14:01:01Z,,,,,,,,,,,,,,,,,,,,,,,,,,NA
2250c,Seq,flow.Sequence,1_3_9,NA,completion,19325,995230,995244,995262,1014587,1014588,2020-06-10T14:01:01Z,,,,,,,,,,,,,,,,,,,,,,,,,,NA
67719,Sit,html.Page,1_3_6_0,NA,form submission,21069,769964,769992,770008,791077,791077,2020-06-10T10:22:36Z,,,,,,,,,,,,,,,,,,,,,,,,,,NA
67719,Seq,flow.Sequence,1_3_6,NA,completion,21069,769964,769992,770008,791077,791077,2020-06-10T10:22:36Z,,,,,,,,,,,,,,,,,,,,,,,,,,NA
d0dc1,Sit,html.Page,1_3_1_0,NA,form submission,17353,512253,512268,512304,529657,529657,2020-06-05T10:45:47Z,,,,,,,,,,,,,,,,,,,,,,,,,,NA
d0dc1,Seq,flow.Sequence,1_3_1,NA,completion,17353,512253,512268,512304,529657,529657,2020-06-05T10:45:47Z,,,,,,,,,,,,,,,,,,,,,,,,,,NA
e099d,Sit,html.Page,1_3_8_0,NA,form submission,15600,624280,624295,624321,639921,639921,2020-06-11T19:10:18Z,,,,,,,,,,,,,,,,,,,,,,,,,,NA
e099d,Seq,flow.Sequence,1_3_8,NA,completion,15600,624279,624295,624321,639921,639922,2020-06-11T19:10:18Z,,,,,,,,,,,,,,,,,,,,,,,,,,NA
a3e09,Sit,html.Page,1_3_7_0,NA,form submission,39042,1356400,1356409,1356440,1395482,1395483,2020-06-05T18:38:39Z,,,,,,,,,,,,,,,,,,,,,,,,,,NA
a3e09,Seq,flow.Sequence,1_3_7,NA,completion,39042,1356400,1356409,1356440,1395482,1395484,2020-06-05T18:38:39Z,,,,,,,,,,,,,,,,,,,,,,,,,,NA
f9251,Sit,html.Page,1_3_0_0,NA,form submission,19613,582625,582644,582676,602289,602289,2020-06-11T06:35:54Z,,,,,,,,,,,,,,,,,,,,,,,,,,NA
f9251,Seq,flow.Sequence,1_3_0,NA,completion,19613,582625,582644,582676,602289,602289,2020-06-11T06:35:54Z,,,,,,,,,,,,,,,,,,,,,,,,,,NA
6d2f6,Sit,html.Page,1_3_7_0,NA,form submission,49328.18,899175,899173.16,899189.82,948518,948518,2020-06-05T08:26:22Z,,,,,,,,,,,,,,,,,,,,,,,,,,NA
6d2f6,Seq,flow.Sequence,1_3_7,NA,completion,49328.18,899175,899173.16,899189.82,948518,948518,2020-06-05T08:26:22Z,,,,,,,,,,,,,,,,,,,,,,,,,,NA
d0dc1,Sit,html.Page,1_3_4_0,NA,form submission,20701,584865,584878,584912,605613,605613,2020-06-05T10:47:03Z,,,,,,,,,,,,,,,,,,,,,,,,,,NA
d0dc1,Seq,flow.Sequence,1_3_4,NA,completion,20701,584864,584878,584912,605613,605613,2020-06-05T10:47:03Z,,,,,,,,,,,,,,,,,,,,,,,,,,NA
f9251,Sit,html.Page,1_3_4_0,NA,form submission,27421,747757,747775,747804,775225,775225,2020-06-11T06:38:47Z,,,,,,,,,,,,,,,,,,,,,,,,,,NA
f9251,Seq,flow.Sequence,1_3_4,NA,completion,27421,747757,747775,747804,775225,775226,2020-06-11T06:38:47Z,,,,,,,,,,,,,,,,,,,,,,,,,,NA
95d42,Sit,html.Page,1_3_0_0,NA,form submission,31483.74,684668,684667.94,684701.26,716185,716186,2020-06-23T14:26:13Z,,,,,,,,,,,,,,,,,,,,,,,,,,NA
95d42,Seq,flow.Sequence,1_3_0,NA,completion,31483.74,684668,684667.94,684701.26,716185,716187,2020-06-23T14:26:13Z,,,,,,,,,,,,,,,,,,,,,,,,,,NA
a83a0,Sit,html.Page,1_3_6_0,NA,form submission,15858.644999968,625981.10500001,625990.795,626006.245,641864.88999997,641865.08000002,2020-06-07T13:28:59Z,,,,,,,,,,,,,,,,,,,,,,,,,,NA
a83a0,Seq,flow.Sequence,1_3_6,NA,completion,15858.644999968,625981.06999998,625990.795,626006.245,641864.88999997,641865.29500003,2020-06-07T13:28:59Z,,,,,,,,,,,,,,,,,,,,,,,,,,NA
b06a8,Sit,html.Page,1_3_1_0,NA,form submission,20949.36,689943,689940.9,690007.64,710957,710958,2020-06-05T09:17:43Z,,,,,,,,,,,,,,,,,,,,,,,,,,NA
b06a8,Seq,flow.Sequence,1_3_1,NA,completion,20949.36,689942,689940.9,690007.64,710957,710959,2020-06-05T09:17:43Z,,,,,,,,,,,,,,,,,,,,,,,,,,NA
a3e09,Sit,html.Page,1_3_5_0,NA,form submission,64173,1259273,1259286,1259311,1323484,1323486,2020-06-05T18:37:27Z,,,,,,,,,,,,,,,,,,,,,,,,,,NA
a3e09,Seq,flow.Sequence,1_3_5,NA,completion,64173,1259272,1259286,1259311,1323484,1323488,2020-06-05T18:37:27Z,,,,,,,,,,,,,,,,,,,,,,,,,,NA
6b27e,Sit,html.Page,1_3_6_0,NA,form submission,29680.52,2540595,2540597.82,2540614.48,2570295,2570296,2020-06-08T17:49:18Z,,,,,,,,,,,,,,,,,,,,,,,,,,NA
6b27e,Seq,flow.Sequence,1_3_6,NA,completion,29680.52,2540595,2540597.82,2540614.48,2570295,2570296,2020-06-08T17:49:18Z,,,,,,,,,,,,,,,,,,,,,,,,,,NA
b06a8,Sit,html.Page,1_3_7_0,NA,form submission,32225.5,834764,834767.44,834817.5,867043,867043,2020-06-05T09:20:19Z,,,,,,,,,,,,,,,,,,,,,,,,,,NA
b06a8,Seq,flow.Sequence,1_3_7,NA,completion,32225.5,834764,834767.44,834817.5,867043,867044,2020-06-05T09:20:19Z,,,,,,,,,,,,,,,,,,,,,,,,,,NA
6d2f6,Sit,html.Page,1_3_9_0,NA,form submission,28421,988654,988656.34,988673,1017094,1017094,2020-06-05T08:27:31Z,,,,,,,,,,,,,,,,,,,,,,,,,,NA
6d2f6,Seq,flow.Sequence,1_3_9,NA,completion,28421,988654,988656.34,988673,1017094,1017094,2020-06-05T08:27:31Z,,,,,,,,,,,,,,,,,,,,,,,,,,NA
d0dc1,Sit,html.Page,1_3_7_0,NA,form submission,17557,647804,647817,647854,665411,665411,2020-06-05T10:48:03Z,,,,,,,,,,,,,,,,,,,,,,,,,,NA
d0dc1,Seq,flow.Sequence,1_3_7,NA,completion,17557,647804,647817,647854,665411,665412,2020-06-05T10:48:03Z,,,,,,,,,,,,,,,,,,,,,,,,,,NA
a3e09,Sit,html.Page,1_3_4_0,NA,form submission,51193,1208037,1208057,1208077,1259270,1259271,2020-06-05T18:36:23Z,,,,,,,,,,,,,,,,,,,,,,,,,,NA
a3e09,Seq,flow.Sequence,1_3_4,NA,completion,51193,1208037,1208057,1208077,1259270,1259272,2020-06-05T18:36:23Z,,,,,,,,,,,,,,,,,,,,,,,,,,NA
2f12c,Sit,html.Page,1_3_8_0,NA,form submission,70244.743000062,1270968.465,1270949.297,1270998.477,1341243.2200001,1341243.4800001,2020-06-19T17:06:22Z,,,,,,,,,,,,,,,,,,,,,,,,,,NA
2f12c,Seq,flow.Sequence,1_3_8,NA,completion,70244.743000062,1270968.4400001,1270949.297,1270998.477,1341243.2200001,1341243.655,2020-06-19T17:06:22Z,,,,,,,,,,,,,,,,,,,,,,,,,,NA
67719,Sit,html.Page,1_3_0_0,NA,form submission,43581,559851,559877,559887,603468,603469,2020-06-10T10:19:29Z,,,,,,,,,,,,,,,,,,,,,,,,,,NA
67719,Seq,flow.Sequence,1_3_0,NA,completion,43581,559851,559877,559887,603468,603469,2020-06-10T10:19:29Z,,,,,,,,,,,,,,,,,,,,,,,,,,NA
70d93,Sit,html.Page,1_3_8_0,NA,form submission,31936.690999954,730877.11499992,730866.448,730916.639,762853.32999995,762854.21499994,2020-06-05T11:19:31Z,,,,,,,,,,,,,,,,,,,,,,,,,,NA
70d93,Seq,flow.Sequence,1_3_8,NA,completion,31936.690999954,730877.00999994,730866.448,730916.639,762853.32999995,762855.00500002,2020-06-05T11:19:31Z,,,,,,,,,,,,,,,,,,,,,,,,,,NA
2f12c,Sit,html.Page,1_3_4_0,NA,form submission,46436.948000015,1128563.7450001,1128548.739,1128580.957,1175017.905,1175018.195,2020-06-19T17:03:36Z,,,,,,,,,,,,,,,,,,,,,,,,,,NA
2f12c,Seq,flow.Sequence,1_3_4,NA,completion,46436.948000015,1128563.7150001,1128548.739,1128580.957,1175017.905,1175018.4350001,2020-06-19T17:03:36Z,,,,,,,,,,,,,,,,,,,,,,,,,,NA
6b27e,Sit,html.Page,1_3_0_0,NA,form submission,27158.58,2429466,2429478.76,2429495.42,2456654,2456654,2020-06-08T17:47:24Z,,,,,,,,,,,,,,,,,,,,,,,,,,NA
6b27e,Seq,flow.Sequence,1_3_0,NA,completion,27158.58,2429466,2429478.76,2429495.42,2456654,2456655,2020-06-08T17:47:24Z,,,,,,,,,,,,,,,,,,,,,,,,,,NA
6d2f6,Sit,html.Page,1_3_2_0,NA,form submission,32018,710720,710725.34,710742,742760,742760,2020-06-05T08:22:57Z,,,,,,,,,,,,,,,,,,,,,,,,,,NA
6d2f6,Seq,flow.Sequence,1_3_2,NA,completion,32018,710720,710725.34,710742,742760,742760,2020-06-05T08:22:57Z,,,,,,,,,,,,,,,,,,,,,,,,,,NA
07f51,Sit,html.Page,1_3_7_0,NA,form submission,33887.880000037,979711.58999996,979696.2,979779.505,1013667.385,1013669.29,2020-06-11T15:12:05Z,,,,,,,,,,,,,,,,,,,,,,,,,,NA
07f51,Seq,flow.Sequence,1_3_7,NA,completion,33887.880000037,979711.46500006,979696.2,979779.505,1013667.385,1013669.9,2020-06-11T15:12:05Z,,,,,,,,,,,,,,,,,,,,,,,,,,NA
6d2f6,Sit,html.Page,1_3_0_0,NA,form submission,25268.98,652383,652386.36,652403.02,677672,677672,2020-06-05T08:21:52Z,,,,,,,,,,,,,,,,,,,,,,,,,,NA
6d2f6,Seq,flow.Sequence,1_3_0,NA,completion,25268.98,652383,652386.36,652403.02,677672,677672,2020-06-05T08:21:52Z,,,,,,,,,,,,,,,,,,,,,,,,,,NA
70d93,Sit,html.Page,1_3_1_0,NA,form submission,25970.224000018,555446.06500003,555434.963,555501.846,581472.07000002,581472.91999997,2020-06-05T11:16:29Z,,,,,,,,,,,,,,,,,,,,,,,,,,NA
70d93,Seq,flow.Sequence,1_3_1,NA,completion,25970.224000018,555446,555434.963,555501.846,581472.07000002,581474.01999997,2020-06-05T11:16:29Z,,,,,,,,,,,,,,,,,,,,,,,,,,NA
6b27e,Sit,html.Page,1_3_1_0,NA,form submission,14897.74,2456655,2456658.6,2456675.26,2471573,2471573,2020-06-08T17:47:39Z,,,,,,,,,,,,,,,,,,,,,,,,,,NA
6b27e,Seq,flow.Sequence,1_3_1,NA,completion,14897.74,2456655,2456658.6,2456675.26,2471573,2471573,2020-06-08T17:47:39Z,,,,,,,,,,,,,,,,,,,,,,,,,,NA
6b27e,Sit,html.Page,1_3_2_0,NA,form submission,18013.02,2471573,2471573.3,2471589.98,2489603,2489603,2020-06-08T17:47:57Z,,,,,,,,,,,,,,,,,,,,,,,,,,NA
6b27e,Seq,flow.Sequence,1_3_2,NA,completion,18013.02,2471573,2471573.3,2471589.98,2489603,2489603,2020-06-08T17:47:57Z,,,,,,,,,,,,,,,,,,,,,,,,,,NA
95d42,Sit,html.Page,1_3_1_0,NA,form submission,31150.1,716188,716193.66,716226.9,747377,747378,2020-06-23T14:26:44Z,,,,,,,,,,,,,,,,,,,,,,,,,,NA
95d42,Seq,flow.Sequence,1_3_1,NA,completion,31150.1,716188,716193.66,716226.9,747377,747379,2020-06-23T14:26:44Z,,,,,,,,,,,,,,,,,,,,,,,,,,NA
a3e09,Sit,html.Page,1_3_1_0,NA,form submission,62100,1068404,1068417,1068450,1130550,1130552,2020-06-05T18:34:14Z,,,,,,,,,,,,,,,,,,,,,,,,,,NA
a3e09,Seq,flow.Sequence,1_3_1,NA,completion,62100,1068404,1068417,1068450,1130550,1130553,2020-06-05T18:34:14Z,,,,,,,,,,,,,,,,,,,,,,,,,,NA
b06a8,Sit,html.Page,1_3_4_0,NA,form submission,30754.8,762179,762170.46,762237.2,792992,792993,2020-06-05T09:19:05Z,,,,,,,,,,,,,,,,,,,,,,,,,,NA
b06a8,Seq,flow.Sequence,1_3_4,NA,completion,30754.8,762178,762170.46,762237.2,792992,792994,2020-06-05T09:19:05Z,,,,,,,,,,,,,,,,,,,,,,,,,,NA
fdced,Sit,html.Page,1_3_8_0,NA,form submission,19307,2558501,2558526,2558555,2577862,2577863,2020-06-05T09:12:52Z,,,,,,,,,,,,,,,,,,,,,,,,,,NA
fdced,Seq,flow.Sequence,1_3_8,NA,completion,19307,2558501,2558526,2558555,2577862,2577863,2020-06-05T09:12:52Z,,,,,,,,,,,,,,,,,,,,,,,,,,NA
95d42,Sit,html.Page,1_3_6_0,NA,form submission,23049.06,944197,944204.62,944237.94,967287,967289,2020-06-23T14:30:24Z,,,,,,,,,,,,,,,,,,,,,,,,,,NA
95d42,Seq,flow.Sequence,1_3_6,NA,completion,23049.06,944197,944204.62,944237.94,967287,967290,2020-06-23T14:30:24Z,,,,,,,,,,,,,,,,,,,,,,,,,,NA
fdced,Sit,html.Page,1_3_0_0,NA,form submission,156201,2119142,2119161,2119188,2275389,2275393,2020-06-05T09:07:50Z,,,,,,,,,,,,,,,,,,,,,,,,,,NA
fdced,Seq,flow.Sequence,1_3_0,NA,completion,156201,2119141,2119161,2119188,2275389,2275395,2020-06-05T09:07:50Z,,,,,,,,,,,,,,,,,,,,,,,,,,NA
67719,Sit,html.Page,1_3_3_0,NA,form submission,34851,665555,665592,665597,700448,700449,2020-06-10T10:21:06Z,,,,,,,,,,,,,,,,,,,,,,,,,,NA
67719,Seq,flow.Sequence,1_3_3,NA,completion,34851,665555,665592,665597,700448,700449,2020-06-10T10:21:06Z,,,,,,,,,,,,,,,,,,,,,,,,,,NA
97f94,Sit,html.Page,1_3_3_0,NA,form submission,38154.68,1429556,1429551.66,1429580.32,1467735,1467736,2020-06-03T16:33:32Z,,,,,,,,,,,,,,,,,,,,,,,,,,NA
97f94,Seq,flow.Sequence,1_3_3,NA,completion,38154.68,1429556,1429551.66,1429580.32,1467735,1467736,2020-06-03T16:33:32Z,,,,,,,,,,,,,,,,,,,,,,,,,,NA
f9251,Sit,html.Page,1_3_8_0,NA,form submission,24625,841312,841330,841360,865985,865985,2020-06-11T06:40:18Z,,,,,,,,,,,,,,,,,,,,,,,,,,NA
f9251,Seq,flow.Sequence,1_3_8,NA,completion,24625,841311,841330,841360,865985,865986,2020-06-11T06:40:18Z,,,,,,,,,,,,,,,,,,,,,,,,,,NA
fdced,Sit,html.Page,1_3_3_0,NA,form submission,22930,2418097,2418121,2418147,2441077,2441078,2020-06-05T09:10:35Z,,,,,,,,,,,,,,,,,,,,,,,,,,NA
fdced,Seq,flow.Sequence,1_3_3,NA,completion,22930,2418097,2418121,2418147,2441077,2441078,2020-06-05T09:10:35Z,,,,,,,,,,,,,,,,,,,,,,,,,,NA
a83a0,Sit,html.Page,1_3_1_0,NA,form submission,17859.039999938,521071.73999993,521072.441,521105.895,538964.93499994,538965.12499999,2020-06-07T13:27:16Z,,,,,,,,,,,,,,,,,,,,,,,,,,NA
a83a0,Seq,flow.Sequence,1_3_1,NA,completion,17859.039999938,521071.70999993,521072.441,521105.895,538964.93499994,538965.34,2020-06-07T13:27:16Z,,,,,,,,,,,,,,,,,,,,,,,,,,NA
f9251,Sit,html.Page,1_3_9_0,NA,form submission,22143,865987,866007,866038,888181,888181,2020-06-11T06:40:40Z,,,,,,,,,,,,,,,,,,,,,,,,,,NA
f9251,Seq,flow.Sequence,1_3_9,NA,completion,22143,865987,866007,866038,888181,888182,2020-06-11T06:40:40Z,,,,,,,,,,,,,,,,,,,,,,,,,,NA
6d2f6,Sit,html.Page,1_1_8_0,NA,form submission,30169.6,578329,578333.72,578350.4,608520,608521,2020-06-05T08:20:42Z,,,,,,,,,,,,,,,,,,,,,,,,,,NA
6d2f6,Seq,flow.Sequence,1_1_8,NA,completion,30169.6,578329,578333.72,578350.4,608520,608521,2020-06-05T08:20:42Z,,,,,,,,,,,,,,,,,,,,,,,,,,NA
70d93,Sit,html.Page,1_1_0_0,NA,form submission,54688.291999923,161560.96999999,161556.964,161607.258,216295.54999992,216296.22499994,2020-06-05T11:10:24Z,,,,,,,,,,,,,,,,,,,,,,,,,,NA
70d93,Seq,flow.Sequence,1_1_0,NA,completion,54688.291999923,161560.91999996,161556.964,161607.258,216295.54999992,216296.94000003,2020-06-05T11:10:24Z,,,,,,,,,,,,,,,,,,,,,,,,,,NA
dfa44,Sit,html.Page,1_1_0_0,NA,form submission,41877.320000002,116546.88,116548.942,116599.045,158476.365,158476.84,2020-06-03T13:48:27Z,,,,,,,,,,,,,,,,,,,,,,,,,,NA
dfa44,Seq,flow.Sequence,1_1_0,NA,completion,41877.320000002,116546.83,116548.942,116599.045,158476.365,158477.35,2020-06-03T13:48:27Z,,,,,,,,,,,,,,,,,,,,,,,,,,NA
2250c,Sit,html.Page,1_1_8_0,NA,form submission,37303,641592,641606,641634,678937,678937,2020-06-10T13:55:25Z,,,,,,,,,,,,,,,,,,,,,,,,,,NA
2250c,Seq,flow.Sequence,1_1_8,NA,completion,37303,641592,641606,641634,678937,678938,2020-06-10T13:55:25Z,,,,,,,,,,,,,,,,,,,,,,,,,,NA
2f12c,Sit,html.Page,1_1_1_0,NA,form submission,60717.256000017,390900.05500009,390883.889,390916.369,451633.62500002,451633.91500001,2020-06-19T16:51:33Z,,,,,,,,,,,,,,,,,,,,,,,,,,NA
2f12c,Seq,flow.Sequence,1_1_1,NA,completion,60717.256000017,390900.02499998,390883.889,390916.369,451633.62500002,451634.12000006,2020-06-19T16:51:33Z,,,,,,,,,,,,,,,,,,,,,,,,,,NA
659a2,Sit,html.Page,1_1_3_0,NA,form submission,37420,443666,443685,443735,481155,481155,2020-06-25T22:40:46Z,,,,,,,,,,,,,,,,,,,,,,,,,,NA
659a2,Seq,flow.Sequence,1_1_3,NA,completion,37420,443666,443685,443735,481155,481156,2020-06-25T22:40:46Z,,,,,,,,,,,,,,,,,,,,,,,,,,NA
70d93,Sit,html.Page,1_1_3_0,NA,form submission,50198.809999968,291168.28999994,291152.569,291219.575,341418.38499997,341419.09500002,2020-06-05T11:12:29Z,,,,,,,,,,,,,,,,,,,,,,,,,,NA
70d93,Seq,flow.Sequence,1_1_3,NA,completion,50198.809999968,291168.23499999,291152.569,291219.575,341418.38499997,341419.81999995,2020-06-05T11:12:29Z,,,,,,,,,,,,,,,,,,,,,,,,,,NA
07f51,Sit,html.Page,1_1_3_0,NA,form submission,52520.552000052,395454.78500007,395439.994,395506.638,448027.19000005,448029.19999999,2020-06-11T15:02:39Z,,,,,,,,,,,,,,,,,,,,,,,,,,NA
07f51,Seq,flow.Sequence,1_1_3,NA,completion,52520.552000052,395454.44999996,395439.994,395506.638,448027.19000005,448029.86500005,2020-06-11T15:02:39Z,,,,,,,,,,,,,,,,,,,,,,,,,,NA
17ed4,Sit,html.Page,1_1_3_0,NA,form submission,34705,199465,199472,199547,234252,234253,2020-06-06T21:09:03Z,,,,,,,,,,,,,,,,,,,,,,,,,,NA
17ed4,Seq,flow.Sequence,1_1_3,NA,completion,34705,199464,199472,199547,234252,234254,2020-06-06T21:09:03Z,,,,,,,,,,,,,,,,,,,,,,,,,,NA
2250c,Sit,html.Page,1_1_9_0,NA,form submission,26018,678938,678954,678985,705003,705003,2020-06-10T13:55:51Z,,,,,,,,,,,,,,,,,,,,,,,,,,NA
2250c,Seq,flow.Sequence,1_1_9,NA,completion,26018,678938,678954,678985,705003,705004,2020-06-10T13:55:51Z,,,,,,,,,,,,,,,,,,,,,,,,,,NA
07f51,Sit,html.Page,1_1_2_0,NA,form submission,41950.714999997,353442.76999997,353417.01,353500.315,395451.03,395453.22000002,2020-06-11T15:01:47Z,,,,,,,,,,,,,,,,,,,,,,,,,,NA
07f51,Seq,flow.Sequence,1_1_2,NA,completion,41950.714999997,353442.63000006,353417.01,353500.315,395451.03,395454.12500005,2020-06-11T15:01:47Z,,,,,,,,,,,,,,,,,,,,,,,,,,NA
f9251,Sit,html.Page,1_1_7_0,NA,form submission,18710,515251,515269,515302,534012,534013,2020-06-11T06:34:46Z,,,,,,,,,,,,,,,,,,,,,,,,,,NA
f9251,Seq,flow.Sequence,1_1_7,NA,completion,18710,515251,515269,515302,534012,534013,2020-06-11T06:34:46Z,,,,,,,,,,,,,,,,,,,,,,,,,,NA
17ed4,Sit,html.Page,1_1_7_0,NA,form submission,19302,315235,315245,315319,334621,334622,2020-06-06T21:10:43Z,,,,,,,,,,,,,,,,,,,,,,,,,,NA
17ed4,Seq,flow.Sequence,1_1_7,NA,completion,19302,315235,315245,315319,334621,334623,2020-06-06T21:10:43Z,,,,,,,,,,,,,,,,,,,,,,,,,,NA
17ed4,Sit,html.Page,1_1_1_0,NA,form submission,35623,142759,142769,142845,178468,178469,2020-06-06T21:08:07Z,,,,,,,,,,,,,,,,,,,,,,,,,,NA
17ed4,Seq,flow.Sequence,1_1_1,NA,completion,35623,142758,142769,142845,178468,178470,2020-06-06T21:08:07Z,,,,,,,,,,,,,,,,,,,,,,,,,,NA
2f12c,Sit,html.Page,1_1_9_0,NA,form submission,40341.509000027,864075.25500003,864068.616,864100.841,904442.35000003,904442.66000006,2020-06-19T16:59:06Z,,,,,,,,,,,,,,,,,,,,,,,,,,NA
2f12c,Seq,flow.Sequence,1_1_9,NA,completion,40341.509000027,864075.23000007,864068.616,864100.841,904442.35000003,904442.90500006,2020-06-19T16:59:06Z,,,,,,,,,,,,,,,,,,,,,,,,,,NA
b06a8,Sit,html.Page,1_1_2_0,NA,form submission,28333.26,427438,427435,427501.74,455835,455837,2020-06-05T09:13:28Z,,,,,,,,,,,,,,,,,,,,,,,,,,NA
b06a8,Seq,flow.Sequence,1_1_2,NA,completion,28333.26,427436,427435,427501.74,455835,455839,2020-06-05T09:13:28Z,,,,,,,,,,,,,,,,,,,,,,,,,,NA
2f12c,Sit,html.Page,1_1_8_0,NA,form submission,43603.277000015,820454.40000005,820439.083,820471.303,864074.58000001,864074.88500001,2020-06-19T16:58:25Z,,,,,,,,,,,,,,,,,,,,,,,,,,NA
2f12c,Seq,flow.Sequence,1_1_8,NA,completion,43603.277000015,820454.37000005,820439.083,820471.303,864074.58000001,864075.14000009,2020-06-19T16:58:25Z,,,,,,,,,,,,,,,,,,,,,,,,,,NA
6b27e,Sit,html.Page,1_1_9_0,NA,form submission,20273.74,2406221,2406231.6,2406248.26,2426522,2426523,2020-06-08T17:46:54Z,,,,,,,,,,,,,,,,,,,,,,,,,,NA
6b27e,Seq,flow.Sequence,1_1_9,NA,completion,20273.74,2406221,2406231.6,2406248.26,2426522,2426524,2020-06-08T17:46:54Z,,,,,,,,,,,,,,,,,,,,,,,,,,NA
95d42,Sit,html.Page,1_1_1_0,NA,form submission,35449.76,359860,359863.92,359897.24,395347,395349,2020-06-23T14:20:52Z,,,,,,,,,,,,,,,,,,,,,,,,,,NA
95d42,Seq,flow.Sequence,1_1_1,NA,completion,35449.76,359860,359863.92,359897.24,395347,395350,2020-06-23T14:20:52Z,,,,,,,,,,,,,,,,,,,,,,,,,,NA
70d93,Sit,html.Page,1_1_1_0,NA,form submission,41432.925999919,216297.35000001,216289.576,216339.874,257772.79999992,257773.13999995,2020-06-05T11:11:06Z,,,,,,,,,,,,,,,,,,,,,,,,,,NA
70d93,Seq,flow.Sequence,1_1_1,NA,completion,41432.925999919,216297.26499994,216289.576,216339.874,257772.79999992,257773.55499996,2020-06-05T11:11:06Z,,,,,,,,,,,,,,,,,,,,,,,,,,NA
97f94,Sit,html.Page,1_1_2_0,NA,form submission,56109.32,928015,928008.68,928041.68,984151,984152,2020-06-03T16:25:28Z,,,,,,,,,,,,,,,,,,,,,,,,,,NA
97f94,Seq,flow.Sequence,1_1_2,NA,completion,56109.32,928014,928008.68,928041.68,984151,984154,2020-06-03T16:25:28Z,,,,,,,,,,,,,,,,,,,,,,,,,,NA
6b27e,Sit,html.Page,1_1_4_0,NA,form submission,31425.48,2280595,2280597.86,2280614.52,2312040,2312040,2020-06-08T17:45:00Z,,,,,,,,,,,,,,,,,,,,,,,,,,NA
6b27e,Seq,flow.Sequence,1_1_4,NA,completion,31425.48,2280595,2280597.86,2280614.52,2312040,2312041,2020-06-08T17:45:00Z,,,,,,,,,,,,,,,,,,,,,,,,,,NA
95d42,Sit,html.Page,1_1_9_0,NA,form submission,39197.94,638941,638945.82,638979.06,678177,678178,2020-06-23T14:25:35Z,,,,,,,,,,,,,,,,,,,,,,,,,,NA
95d42,Seq,flow.Sequence,1_1_9,NA,completion,39197.94,638941,638945.82,638979.06,678177,678179,2020-06-23T14:25:35Z,,,,,,,,,,,,,,,,,,,,,,,,,,NA
d0dc1,Sit,html.Page,1_1_2_0,NA,form submission,29774,287847,287860,287899,317673,317673,2020-06-05T10:42:15Z,,,,,,,,,,,,,,,,,,,,,,,,,,NA
d0dc1,Seq,flow.Sequence,1_1_2,NA,completion,29774,287847,287860,287899,317673,317673,2020-06-05T10:42:15Z,,,,,,,,,,,,,,,,,,,,,,,,,,NA
2250c,Sit,html.Page,1_1_6_0,NA,form submission,33670,571989,572005,572023,605693,605693,2020-06-10T13:54:12Z,,,,,,,,,,,,,,,,,,,,,,,,,,NA
2250c,Seq,flow.Sequence,1_1_6,NA,completion,33670,571989,572005,572023,605693,605693,2020-06-10T13:54:12Z,,,,,,,,,,,,,,,,,,,,,,,,,,NA
f9251,Sit,html.Page,1_1_1_0,NA,form submission,50247,220813,220830,220864,271111,271112,2020-06-11T06:30:23Z,,,,,,,,,,,,,,,,,,,,,,,,,,NA
f9251,Seq,flow.Sequence,1_1_1,NA,completion,50247,220813,220830,220864,271111,271113,2020-06-11T06:30:23Z,,,,,,,,,,,,,,,,,,,,,,,,,,NA
659a2,Sit,html.Page,1_1_6_0,NA,form submission,25867,546026,546046,546088,571955,571955,2020-06-25T22:42:17Z,,,,,,,,,,,,,,,,,,,,,,,,,,NA
659a2,Seq,flow.Sequence,1_1_6,NA,completion,25867,546026,546046,546088,571955,571956,2020-06-25T22:42:17Z,,,,,,,,,,,,,,,,,,,,,,,,,,NA
70d93,Sit,html.Page,1_1_6_0,NA,form submission,32432.285999991,380745.81999995,380721.137,380788.114,413220.39999999,413221.69499996,2020-06-05T11:13:41Z,,,,,,,,,,,,,,,,,,,,,,,,,,NA
70d93,Seq,flow.Sequence,1_1_6,NA,completion,32432.285999991,380745.75,380721.137,380788.114,413220.39999999,413222.53499995,2020-06-05T11:13:41Z,,,,,,,,,,,,,,,,,,,,,,,,,,NA
fdced,Sit,html.Page,1_1_1_0,NA,form submission,48048,278280,278298,278327,326375,326376,2020-06-05T08:24:54Z,,,,,,,,,,,,,,,,,,,,,,,,,,NA
fdced,Seq,flow.Sequence,1_1_1,NA,completion,48048,278279,278298,278327,326375,326377,2020-06-05T08:24:54Z,,,,,,,,,,,,,,,,,,,,,,,,,,NA
17ed4,Sit,html.Page,1_1_2_0,NA,form submission,20908,178471,178480,178554,199462,199463,2020-06-06T21:08:28Z,,,,,,,,,,,,,,,,,,,,,,,,,,NA
17ed4,Seq,flow.Sequence,1_1_2,NA,completion,20908,178470,178480,178554,199462,199464,2020-06-06T21:08:28Z,,,,,,,,,,,,,,,,,,,,,,,,,,NA
659a2,Sit,html.Page,1_1_4_0,NA,form submission,31795,481157,481175,481213,513008,513009,2020-06-25T22:41:18Z,,,,,,,,,,,,,,,,,,,,,,,,,,NA
659a2,Seq,flow.Sequence,1_1_4,NA,completion,31795,481156,481175,481213,513008,513010,2020-06-25T22:41:18Z,,,,,,,,,,,,,,,,,,,,,,,,,,NA
67719,Sit,html.Page,1_1_5_0,NA,form submission,22634,400507,400537,400553,423187,423187,2020-06-10T10:16:28Z,,,,,,,,,,,,,,,,,,,,,,,,,,NA
67719,Seq,flow.Sequence,1_1_5,NA,completion,22634,400507,400537,400553,423187,423188,2020-06-10T10:16:28Z,,,,,,,,,,,,,,,,,,,,,,,,,,NA
b06a8,Sit,html.Page,1_1_6_0,NA,form submission,18517.56,550123,550120.4,550170.44,568688,568688,2020-06-05T09:15:21Z,,,,,,,,,,,,,,,,,,,,,,,,,,NA
b06a8,Seq,flow.Sequence,1_1_6,NA,completion,18517.56,550123,550120.4,550170.44,568688,568690,2020-06-05T09:15:21Z,,,,,,,,,,,,,,,,,,,,,,,,,,NA
07f51,Sit,html.Page,1_1_8_0,NA,form submission,59882.216999993,591548.39999997,591536.354,591602.998,651485.21499999,651487.39500006,2020-06-11T15:06:03Z,,,,,,,,,,,,,,,,,,,,,,,,,,NA
07f51,Seq,flow.Sequence,1_1_8,NA,completion,59882.216999993,591548.27500007,591536.354,591602.998,651485.21499999,651488.25499997,2020-06-11T15:06:03Z,,,,,,,,,,,,,,,,,,,,,,,,,,NA
2f12c,Sit,html.Page,1_1_5_0,NA,form submission,50561.95800007,649101.96,649090.948,649123.212,699685.17000007,699685.43499999,2020-06-19T16:55:41Z,,,,,,,,,,,,,,,,,,,,,,,,,,NA
2f12c,Seq,flow.Sequence,1_1_5,NA,completion,50561.95800007,649101.94000008,649090.948,649123.212,699685.17000007,699685.60500001,2020-06-19T16:55:41Z,,,,,,,,,,,,,,,,,,,,,,,,,,NA
