observation,sender,sender_type,sender_id,x,ended_on,duration,time_run,time_render,time_show,time_end,time_commit,timestamp,gender,age,grad,drug,cof,cig,alc,bfi10_e1,bfi10_v2,bfi10_g1,bfi10_n1,bfi10_o1,bfi10_e2,bfi10_v1,bfi10_g2,bfi10_n2,bfi10_o2,story,option_a,option_b,story_number,risk_a,risk_b,fame_known,risk_oa,meme
12777,welcome,html.Page,0_0,NA,form submission,3224.4959998379,1183.955000015,1175.462,1192.129,4416.6249998379,4418.8399999402,2020-05-30T07:54:09Z,,,,,,,,,,,,,,,,,,,,,,,,,,NA
54441,welcome,html.Page,0_0,NA,form submission,9722,538,544,557,10279,10280,2020-05-30T10:41:40Z,,,,,,,,,,,,,,,,,,,,,,,,,,NA
54441,dem,html.Page,0_1,NA,form submission,54034,10280,10285,10303,64337,64338,2020-05-30T10:42:34Z,,,,,,,,,,,,,,,,,,,,,,,,,,NA
6f634,welcome,html.Page,0_0,NA,form submission,24021.63599995,3885.1999999606,3887.491,4004.264,28025.89999995,28028.799999971,2020-05-30T11:04:17Z,,,,,,,,,,,,,,,,,,,,,,,,,,NA
6f634,dem,html.Page,0_1,NA,form submission,35198.335,28030.899999954,28004.539,28071.265,63269.6,63270.899999945,2020-05-30T11:04:52Z,,,,,,,,,,,,,,,,,,,,,,,,,,NA
6f634,BFI-10,html.Page,0_2,NA,form submission,36105.40499998,63272.099999944,63259.308,63342.695,99448.09999998,99451.499999966,2020-05-30T11:05:28Z,,,,,,,,,,,,,,,,,,,,,,,,,,NA
6f634,Dem,flow.Sequence,0,NA,completion,95443.83599998,3884.9999999511,3887.491,4004.264,99448.09999998,99457.299999951,2020-05-30T11:05:28Z,,,,,,,,,,,,,,,,,,,,,,,,,,NA
6f634,SitIntro,html.Page,1_0,NA,form submission,20448.199999967,99459.299999988,99430.732,99464.1,119912.29999997,119913.39999996,2020-05-30T11:05:49Z,,,,,,,,,,,,,,,,,,,,,,,,,,NA
54441,BFI-10,html.Page,0_2,NA,form submission,128438,64339,64360,64390,192828,192835,2020-05-30T11:06:25Z,,,,,,,,,,,,,,,,,,,,,,,,,,NA
54441,Dem,flow.Sequence,0,NA,completion,192271,538,544,557,192828,192837,2020-05-30T11:06:25Z,,,,,,,,,,,,,,,,,,,,,,,,,,NA
6f634,Sit,html.Page,1_1_0_0,NA,form submission,37262.49699999,119914.69999996,119909.081,119959.103,157221.59999999,157222.69999998,2020-05-30T11:06:26Z,,,,,,,,,,,,,,,,,,,,,,,,,,NA
6f634,Seq,flow.Sequence,1_1_0,NA,completion,37262.49699999,119914.59999996,119909.081,119959.103,157221.59999999,157223.99999999,2020-05-30T11:06:26Z,,,,,,,,,,,,,,,,,,,,,,,,,,NA
54441,SitIntro,html.Page,1_0,NA,form submission,19719,192839,192846,192857,212576,212578,2020-05-30T11:06:45Z,,,,,,,,,,,,,,,,,,,,,,,,,,NA
6f634,Sit,html.Page,1_1_1_0,NA,form submission,30097.732999962,157224.79999997,157209.784,157276.467,187374.19999996,187375.79999998,2020-05-30T11:06:56Z,,,,,,,,,,,,,,,,,,,,,,,,,,NA
6f634,Seq,flow.Sequence,1_1_1,NA,completion,30097.732999962,157224.59999996,157209.784,157276.467,187374.19999996,187377.69999995,2020-05-30T11:06:56Z,,,,,,,,,,,,,,,,,,,,,,,,,,NA
54441,Sit,html.Page,1_1_0_0,NA,form submission,36159,212580,212596,212641,248800,248801,2020-05-30T11:07:21Z,,,,,,,,,,,,,,,,,,,,,,,,,,NA
54441,Seq,flow.Sequence,1_1_0,NA,completion,36159,212580,212596,212641,248800,248802,2020-05-30T11:07:21Z,,,,,,,,,,,,,,,,,,,,,,,,,,NA
6f634,Sit,html.Page,1_1_2_0,NA,form submission,31278.141999981,187379.09999996,187356.939,187423.658,218701.79999998,218703.09999998,2020-05-30T11:07:27Z,,,,,,,,,,,,,,,,,,,,,,,,,,NA
6f634,Seq,flow.Sequence,1_1_2,NA,completion,31278.141999981,187378.79999995,187356.939,187423.658,218701.79999998,218704.49999999,2020-05-30T11:07:27Z,,,,,,,,,,,,,,,,,,,,,,,,,,NA
6f634,Sit,html.Page,1_1_3_0,NA,form submission,22389.218999978,218705.19999997,218685.799,218752.481,241141.69999998,241142.59999996,2020-05-30T11:07:50Z,,,,,,,,,,,,,,,,,,,,,,,,,,NA
6f634,Seq,flow.Sequence,1_1_3,NA,completion,22389.218999978,218705.09999996,218685.799,218752.481,241141.69999998,241144.6,2020-05-30T11:07:50Z,,,,,,,,,,,,,,,,,,,,,,,,,,NA
54441,Sit,html.Page,1_1_1_0,NA,form submission,43714,248803,248819,248856,292570,292572,2020-05-30T11:08:05Z,,,,,,,,,,,,,,,,,,,,,,,,,,NA
54441,Seq,flow.Sequence,1_1_1,NA,completion,43714,248803,248819,248856,292570,292573,2020-05-30T11:08:05Z,,,,,,,,,,,,,,,,,,,,,,,,,,NA
6f634,Sit,html.Page,1_1_4_0,NA,form submission,21319.285999989,241145.39999998,241127.727,241211.114,262530.39999999,262533.19999995,2020-05-30T11:08:11Z,,,,,,,,,,,,,,,,,,,,,,,,,,NA
6f634,Seq,flow.Sequence,1_1_4,NA,completion,21319.285999989,241145.19999997,241127.727,241211.114,262530.39999999,262534.99999997,2020-05-30T11:08:11Z,,,,,,,,,,,,,,,,,,,,,,,,,,NA
6f634,Sit,html.Page,1_1_5_0,NA,form submission,20725.402999962,262537.09999996,262517.624,262600.997,283326.39999996,283327.79999997,2020-05-30T11:08:32Z,,,,,,,,,,,,,,,,,,,,,,,,,,NA
6f634,Seq,flow.Sequence,1_1_5,NA,completion,20725.402999962,262536.8,262517.624,262600.997,283326.39999996,283330.49999998,2020-05-30T11:08:32Z,,,,,,,,,,,,,,,,,,,,,,,,,,NA
6f634,Sit,html.Page,1_1_6_0,NA,form submission,22263.787999996,283331.69999998,283305.95,283389.312,305653.1,305654.4,2020-05-30T11:08:54Z,,,,,,,,,,,,,,,,,,,,,,,,,,NA
6f634,Seq,flow.Sequence,1_1_6,NA,completion,22263.787999996,283331.29999996,283305.95,283389.312,305653.1,305655.99999996,2020-05-30T11:08:54Z,,,,,,,,,,,,,,,,,,,,,,,,,,NA
6f634,Sit,html.Page,1_1_7_0,NA,form submission,21584.141999965,305656.8,305643.788,305710.458,327294.59999996,327295.59999995,2020-05-30T11:09:16Z,,,,,,,,,,,,,,,,,,,,,,,,,,NA
6f634,Seq,flow.Sequence,1_1_7,NA,completion,21584.141999965,305656.69999999,305643.788,305710.458,327294.59999996,327296.69999995,2020-05-30T11:09:16Z,,,,,,,,,,,,,,,,,,,,,,,,,,NA
6f634,Sit,html.Page,1_1_8_0,NA,form submission,27284.985999978,327297.39999998,327283.301,327366.514,354651.49999998,354652.39999996,2020-05-30T11:09:43Z,,,,,,,,,,,,,,,,,,,,,,,,,,NA
6f634,Seq,flow.Sequence,1_1_8,NA,completion,27284.985999978,327297.19999997,327283.301,327366.514,354651.49999998,354653.49999996,2020-05-30T11:09:43Z,,,,,,,,,,,,,,,,,,,,,,,,,,NA
6f634,Sit,html.Page,1_1_9_0,NA,form submission,25063.515999995,354654.09999999,354644.176,354710.884,379774.39999999,379775.79999994,2020-05-30T11:10:09Z,,,,,,,,,,,,,,,,,,,,,,,,,,NA
6f634,Seq,flow.Sequence,1_1_9,NA,completion,25063.515999995,354653.99999998,354644.176,354710.884,379774.39999999,379777.39999996,2020-05-30T11:10:09Z,,,,,,,,,,,,,,,,,,,,,,,,,,NA
6f634,Loop1,flow.Loop,1_1,NA,completion,259815.29699999,119914.29999995,119909.081,119959.103,379774.39999999,379778.99999998,2020-05-30T11:10:09Z,,,,,,,,,,,,,,,,,,,,,,,,,,NA
6f634,Progress,html.Page,1_2,NA,form submission,2966.5379999652,379779.89999996,379753.563,379803.562,382770.09999997,382771.09999995,2020-05-30T11:10:12Z,,,,,,,,,,,,,,,,,,,,,,,,,,NA
6f634,Sit,html.Page,1_3_0_0,NA,form submission,16545.223999948,382772.29999995,382766.051,382838.476,399383.69999995,399384.59999999,2020-05-30T11:10:28Z,,,,,,,,,,,,,,,,,,,,,,,,,,NA
6f634,Seq,flow.Sequence,1_3_0,NA,completion,16545.223999948,382772.09999994,382766.051,382838.476,399383.69999995,399386.29999995,2020-05-30T11:10:28Z,,,,,,,,,,,,,,,,,,,,,,,,,,NA
6f634,Sit,html.Page,1_3_1_0,NA,form submission,19847.180999961,399387.2,399374.541,399441.219,419288.39999996,419290.4,2020-05-30T11:10:48Z,,,,,,,,,,,,,,,,,,,,,,,,,,NA
6f634,Seq,flow.Sequence,1_3_1,NA,completion,19847.180999961,399387.09999999,399374.541,399441.219,419288.39999996,419292.19999997,2020-05-30T11:10:48Z,,,,,,,,,,,,,,,,,,,,,,,,,,NA
54441,Sit,html.Page,1_1_2_0,NA,form submission,74594,292574,292589,292624,367218,367226,2020-05-30T11:11:00Z,,,,,,,,,,,,,,,,,,,,,,,,,,NA
54441,Seq,flow.Sequence,1_1_2,NA,completion,74594,292573,292589,292624,367218,367228,2020-05-30T11:11:00Z,,,,,,,,,,,,,,,,,,,,,,,,,,NA
6f634,Sit,html.Page,1_3_2_0,NA,form submission,15818.578999964,419293.19999996,419263.959,419347.321,435165.89999996,435167.39999998,2020-05-30T11:11:04Z,,,,,,,,,,,,,,,,,,,,,,,,,,NA
6f634,Seq,flow.Sequence,1_3_2,NA,completion,15818.578999964,419292.99999995,419263.959,419347.321,435165.89999996,435169.49999996,2020-05-30T11:11:04Z,,,,,,,,,,,,,,,,,,,,,,,,,,NA
54441,Sit,html.Page,1_1_3_0,NA,form submission,23090,367230,367243,367275,390365,390366,2020-05-30T11:11:23Z,,,,,,,,,,,,,,,,,,,,,,,,,,NA
54441,Seq,flow.Sequence,1_1_3,NA,completion,23090,367229,367243,367275,390365,390367,2020-05-30T11:11:23Z,,,,,,,,,,,,,,,,,,,,,,,,,,NA
6f634,Sit,html.Page,1_3_3_0,NA,form submission,19657.739999987,435170.69999996,435151.984,435235.36,454893.09999999,454894.39999999,2020-05-30T11:11:24Z,,,,,,,,,,,,,,,,,,,,,,,,,,NA
6f634,Seq,flow.Sequence,1_3_3,NA,completion,19657.739999987,435170.39999994,435151.984,435235.36,454893.09999999,454895.8,2020-05-30T11:11:24Z,,,,,,,,,,,,,,,,,,,,,,,,,,NA
6f634,Sit,html.Page,1_3_4_0,NA,form submission,16290.979999945,454896.49999997,454875.224,454941.92,471232.89999994,471234.29999995,2020-05-30T11:11:40Z,,,,,,,,,,,,,,,,,,,,,,,,,,NA
6f634,Seq,flow.Sequence,1_3_4,NA,completion,16290.979999945,454896.39999997,454875.224,454941.92,471232.89999994,471235.79999997,2020-05-30T11:11:40Z,,,,,,,,,,,,,,,,,,,,,,,,,,NA
54441,Sit,html.Page,1_1_4_0,NA,form submission,28563,390368,390384,390415,418978,418980,2020-05-30T11:11:52Z,,,,,,,,,,,,,,,,,,,,,,,,,,NA
54441,Seq,flow.Sequence,1_1_4,NA,completion,28563,390368,390384,390415,418978,418981,2020-05-30T11:11:52Z,,,,,,,,,,,,,,,,,,,,,,,,,,NA
6f634,Sit,html.Page,1_3_5_0,NA,form submission,17791.558999984,471236.69999995,471212.996,471296.341,489087.89999998,489090.49999999,2020-05-30T11:11:58Z,,,,,,,,,,,,,,,,,,,,,,,,,,NA
6f634,Seq,flow.Sequence,1_3_5,NA,completion,17791.558999984,471236.39999999,471212.996,471296.341,489087.89999998,489091.69999999,2020-05-30T11:11:58Z,,,,,,,,,,,,,,,,,,,,,,,,,,NA
6f634,Sit,html.Page,1_3_6_0,NA,form submission,30974.81399995,489092.29999996,489068.235,489151.586,520126.39999995,520128.29999998,2020-05-30T11:12:29Z,,,,,,,,,,,,,,,,,,,,,,,,,,NA
6f634,Seq,flow.Sequence,1_3_6,NA,completion,30974.81399995,489092.19999996,489068.235,489151.586,520126.39999995,520130.19999996,2020-05-30T11:12:29Z,,,,,,,,,,,,,,,,,,,,,,,,,,NA
54441,Sit,html.Page,1_1_5_0,NA,form submission,56734,418982,418999,419030,475764,475771,2020-05-30T11:12:48Z,,,,,,,,,,,,,,,,,,,,,,,,,,NA
54441,Seq,flow.Sequence,1_1_5,NA,completion,56734,418982,418999,419030,475764,475774,2020-05-30T11:12:48Z,,,,,,,,,,,,,,,,,,,,,,,,,,NA
6f634,Sit,html.Page,1_3_7_0,NA,form submission,28164.458000002,520131.39999995,520106.142,520189.742,548354.2,548355.49999995,2020-05-30T11:12:57Z,,,,,,,,,,,,,,,,,,,,,,,,,,NA
6f634,Seq,flow.Sequence,1_3_7,NA,completion,28164.458000002,520130.99999999,520106.142,520189.742,548354.2,548356.89999996,2020-05-30T11:12:57Z,,,,,,,,,,,,,,,,,,,,,,,,,,NA
54441,Sit,html.Page,1_1_6_0,NA,form submission,23256,475775,475788,475821,499077,499079,2020-05-30T11:13:12Z,,,,,,,,,,,,,,,,,,,,,,,,,,NA
54441,Seq,flow.Sequence,1_1_6,NA,completion,23256,475775,475788,475821,499077,499080,2020-05-30T11:13:12Z,,,,,,,,,,,,,,,,,,,,,,,,,,NA
6f634,Sit,html.Page,1_3_8_0,NA,form submission,16895.850999988,548357.89999994,548347.262,548413.949,565309.79999999,565311.39999995,2020-05-30T11:13:14Z,,,,,,,,,,,,,,,,,,,,,,,,,,NA
6f634,Seq,flow.Sequence,1_3_8,NA,completion,16895.850999988,548357.59999999,548347.262,548413.949,565309.79999999,565312.99999997,2020-05-30T11:13:14Z,,,,,,,,,,,,,,,,,,,,,,,,,,NA
6f634,Sit,html.Page,1_3_9_0,NA,form submission,22750.789999978,565313.79999995,565300.94,565367.61,588118.39999998,588119.09999995,2020-05-30T11:13:37Z,,,,,,,,,,,,,,,,,,,,,,,,,,NA
6f634,Seq,flow.Sequence,1_3_9,NA,completion,22750.789999978,565313.59999999,565300.94,565367.61,588118.39999998,588119.79999999,2020-05-30T11:13:37Z,,,,,,,,,,,,,,,,,,,,,,,,,,NA
6f634,Loop2,flow.Loop,1_3,NA,completion,205279.92399998,382771.89999999,382766.051,382838.476,588118.39999998,588120.39999996,2020-05-30T11:13:37Z,,,,,,,,,,,,,,,,,,,,,,,,,,NA
6f634,Progress,html.Page,1_4,NA,form submission,2502.8309999905,588120.79999998,588105.298,588121.969,590624.79999999,590625.69999998,2020-05-30T11:13:39Z,,,,,,,,,,,,,,,,,,,,,,,,,,NA
6f634,Sit,html.Page,1_5_0_0,NA,form submission,15070.239999963,590626.79999997,590622.85,590672.86,605743.09999996,605744.69999998,2020-05-30T11:13:54Z,,,,,,,,,,,,,,,,,,,,,,,,,,NA
6f634,Seq,flow.Sequence,1_5_0,NA,completion,15070.239999963,590626.69999996,590622.85,590672.86,605743.09999996,605746.49999995,2020-05-30T11:13:54Z,,,,,,,,,,,,,,,,,,,,,,,,,,NA
6f634,Sit,html.Page,1_5_1_0,NA,form submission,16279.316999977,605747.59999994,605727.527,605810.883,622090.19999998,622091.39999998,2020-05-30T11:14:11Z,,,,,,,,,,,,,,,,,,,,,,,,,,NA
6f634,Seq,flow.Sequence,1_5_1,NA,completion,16279.316999977,605747.39999999,605727.527,605810.883,622090.19999998,622092.39999996,2020-05-30T11:14:11Z,,,,,,,,,,,,,,,,,,,,,,,,,,NA
6f634,Sit,html.Page,1_5_2_0,NA,form submission,31938.708999959,622093.1,622085.17,622135.191,654073.89999996,654075.19999996,2020-05-30T11:14:43Z,,,,,,,,,,,,,,,,,,,,,,,,,,NA
6f634,Seq,flow.Sequence,1_5_2,NA,completion,31938.708999959,622092.89999999,622085.17,622135.191,654073.89999996,654076.79999998,2020-05-30T11:14:43Z,,,,,,,,,,,,,,,,,,,,,,,,,,NA
6f634,Sit,html.Page,1_5_3_0,NA,form submission,27157.225999979,654077.99999998,654059.216,654142.574,681299.79999998,681301.5,2020-05-30T11:15:10Z,,,,,,,,,,,,,,,,,,,,,,,,,,NA
6f634,Seq,flow.Sequence,1_5_3,NA,completion,27157.225999979,654077.69999997,654059.216,654142.574,681299.79999998,681306.3,2020-05-30T11:15:10Z,,,,,,,,,,,,,,,,,,,,,,,,,,NA
6f634,Sit,html.Page,1_5_4_0,NA,form submission,26450.84799997,681307.39999999,681279.993,681396.552,707847.39999997,707848.89999998,2020-05-30T11:15:37Z,,,,,,,,,,,,,,,,,,,,,,,,,,NA
6f634,Seq,flow.Sequence,1_5_4,NA,completion,26450.84799997,681307.09999998,681279.993,681396.552,707847.39999997,707851.39999999,2020-05-30T11:15:37Z,,,,,,,,,,,,,,,,,,,,,,,,,,NA
6f634,Sit,html.Page,1_5_5_0,NA,form submission,24913.704999946,707852.39999997,707818.49,707918.495,732832.19999995,732833.59999995,2020-05-30T11:16:02Z,,,,,,,,,,,,,,,,,,,,,,,,,,NA
6f634,Seq,flow.Sequence,1_5_5,NA,completion,24913.704999946,707852.19999996,707818.49,707918.495,732832.19999995,732834.99999996,2020-05-30T11:16:02Z,,,,,,,,,,,,,,,,,,,,,,,,,,NA
6f634,Sit,html.Page,1_5_6_0,NA,form submission,17492.30299998,732835.89999995,732826.603,732893.297,750385.59999998,750386.89999998,2020-05-30T11:16:19Z,,,,,,,,,,,,,,,,,,,,,,,,,,NA
6f634,Seq,flow.Sequence,1_5_6,NA,completion,17492.30299998,732835.7,732826.603,732893.297,750385.59999998,750389.89999995,2020-05-30T11:16:19Z,,,,,,,,,,,,,,,,,,,,,,,,,,NA
6f634,Sit,html.Page,1_5_7_0,NA,form submission,24975.194999983,750391.39999996,750381.292,750431.305,775406.49999998,775408,2020-05-30T11:16:44Z,,,,,,,,,,,,,,,,,,,,,,,,,,NA
6f634,Seq,flow.Sequence,1_5_7,NA,completion,24975.194999983,750391.09999995,750381.292,750431.305,775406.49999998,775411.19999997,2020-05-30T11:16:44Z,,,,,,,,,,,,,,,,,,,,,,,,,,NA
6f634,Sit,html.Page,1_5_8_0,NA,form submission,24195.230999977,775412.79999999,775388.792,775472.169,799667.39999998,799669.69999997,2020-05-30T11:17:08Z,,,,,,,,,,,,,,,,,,,,,,,,,,NA
6f634,Seq,flow.Sequence,1_5_8,NA,completion,24195.230999977,775412.49999998,775388.792,775472.169,799667.39999998,799672.19999997,2020-05-30T11:17:08Z,,,,,,,,,,,,,,,,,,,,,,,,,,NA
6f634,Sit,html.Page,1_5_9_0,NA,form submission,13495.623999966,799673.19999996,799663.688,799730.376,813225.99999997,813227.39999997,2020-05-30T11:17:22Z,,,,,,,,,,,,,,,,,,,,,,,,,,NA
6f634,Seq,flow.Sequence,1_5_9,NA,completion,13495.623999966,799672.99999995,799663.688,799730.376,813225.99999997,813229.1,2020-05-30T11:17:22Z,,,,,,,,,,,,,,,,,,,,,,,,,,NA
6f634,Loop3,flow.Loop,1_5,NA,completion,222553.13999997,590626.49999995,590622.85,590672.86,813225.99999997,813230.09999999,2020-05-30T11:17:22Z,,,,,,,,,,,,,,,,,,,,,,,,,,NA
6f634,Risk_assessment,flow.Sequence,1,NA,completion,713761.89999997,99458.299999998,99430.732,99464.1,813225.99999997,813231.09999998,2020-05-30T11:17:22Z,,,,,,,,,,,,,,,,,,,,,,,,,,NA
6f634,vp,html.Page,2_0_0,NA,form submission,5355.0849999541,813232.39999998,813214.793,813248.115,818603.19999995,818604.39999995,2020-05-30T11:17:27Z,,,,,,,,,,,,,,,,,,,,,,,,,,static/1.jpeg
6f634,loop,flow.Loop,2_0,NA,completion,5355.0849999541,813232.09999996,813214.793,813248.115,818603.19999995,818605.49999995,2020-05-30T11:17:27Z,,,,,,,,,,,,,,,,,,,,,,,,,,NA
54441,Sit,html.Page,1_1_7_0,NA,form submission,128105,499081,499097,499136,627241,627248,2020-05-30T11:25:34Z,,,,,,,,,,,,,,,,,,,,,,,,,,NA
54441,Seq,flow.Sequence,1_1_7,NA,completion,128105,499081,499097,499136,627241,627251,2020-05-30T11:25:34Z,,,,,,,,,,,,,,,,,,,,,,,,,,NA
54441,Sit,html.Page,1_1_8_0,NA,form submission,25391,627253,627266,627297,652688,652689,2020-05-30T11:25:59Z,,,,,,,,,,,,,,,,,,,,,,,,,,NA
54441,Seq,flow.Sequence,1_1_8,NA,completion,25391,627252,627266,627297,652688,652690,2020-05-30T11:25:59Z,,,,,,,,,,,,,,,,,,,,,,,,,,NA
54441,Sit,html.Page,1_1_9_0,NA,form submission,22976,652691,652707,652740,675716,675717,2020-05-30T11:26:22Z,,,,,,,,,,,,,,,,,,,,,,,,,,NA
54441,Seq,flow.Sequence,1_1_9,NA,completion,22976,652691,652707,652740,675716,675719,2020-05-30T11:26:22Z,,,,,,,,,,,,,,,,,,,,,,,,,,NA
54441,Loop1,flow.Loop,1_1,NA,completion,463075,212579,212596,212641,675716,675720,2020-05-30T11:26:22Z,,,,,,,,,,,,,,,,,,,,,,,,,,NA
54441,Progress,html.Page,1_2,NA,form submission,4466.0000000001,675721,675727,675738,680204,680209,2020-05-30T11:26:27Z,,,,,,,,,,,,,,,,,,,,,,,,,,NA
54441,Sit,html.Page,1_3_0_0,NA,form submission,20837,680211,680216,680251,701088,701089,2020-05-30T11:26:47Z,,,,,,,,,,,,,,,,,,,,,,,,,,NA
54441,Seq,flow.Sequence,1_3_0,NA,completion,20837,680210,680216,680251,701088,701091,2020-05-30T11:26:47Z,,,,,,,,,,,,,,,,,,,,,,,,,,NA
54441,Sit,html.Page,1_3_1_0,NA,form submission,21303,701092,701110,701146,722449,722451,2020-05-30T11:27:09Z,,,,,,,,,,,,,,,,,,,,,,,,,,NA
54441,Seq,flow.Sequence,1_3_1,NA,completion,21303,701092,701110,701146,722449,722452,2020-05-30T11:27:09Z,,,,,,,,,,,,,,,,,,,,,,,,,,NA
54441,Sit,html.Page,1_3_2_0,NA,form submission,18815,722452,722470,722503,741318,741319,2020-05-30T11:27:28Z,,,,,,,,,,,,,,,,,,,,,,,,,,NA
54441,Seq,flow.Sequence,1_3_2,NA,completion,18815,722452,722470,722503,741318,741321,2020-05-30T11:27:28Z,,,,,,,,,,,,,,,,,,,,,,,,,,NA
54441,Sit,html.Page,1_3_3_0,NA,form submission,31810,741322,741340,741370,773180,773182,2020-05-30T11:28:00Z,,,,,,,,,,,,,,,,,,,,,,,,,,NA
54441,Seq,flow.Sequence,1_3_3,NA,completion,31810,741321,741340,741370,773180,773183,2020-05-30T11:28:00Z,,,,,,,,,,,,,,,,,,,,,,,,,,NA
54441,Sit,html.Page,1_3_4_0,NA,form submission,18982,773184,773199,773229,792211,792212,2020-05-30T11:28:19Z,,,,,,,,,,,,,,,,,,,,,,,,,,NA
54441,Seq,flow.Sequence,1_3_4,NA,completion,18982,773183,773199,773229,792211,792213,2020-05-30T11:28:19Z,,,,,,,,,,,,,,,,,,,,,,,,,,NA
54441,Sit,html.Page,1_3_5_0,NA,form submission,1564820,792214,792233,792264,2357084,2357091,2020-05-30T12:54:30Z,,,,,,,,,,,,,,,,,,,,,,,,,,NA
54441,Seq,flow.Sequence,1_3_5,NA,completion,1564820,792214,792233,792264,2357084,2357094,2020-05-30T12:54:30Z,,,,,,,,,,,,,,,,,,,,,,,,,,NA
54441,Sit,html.Page,1_3_6_0,NA,form submission,19615,2357096,2357107,2357138,2376753,2376754,2020-05-30T12:54:50Z,,,,,,,,,,,,,,,,,,,,,,,,,,NA
54441,Seq,flow.Sequence,1_3_6,NA,completion,19615,2357096,2357107,2357138,2376753,2376756,2020-05-30T12:54:50Z,,,,,,,,,,,,,,,,,,,,,,,,,,NA
54441,Sit,html.Page,1_3_7_0,NA,form submission,23217,2376758,2376775,2376810,2400027,2400029,2020-05-30T12:55:13Z,,,,,,,,,,,,,,,,,,,,,,,,,,NA
54441,Seq,flow.Sequence,1_3_7,NA,completion,23217,2376757,2376775,2376810,2400027,2400031,2020-05-30T12:55:13Z,,,,,,,,,,,,,,,,,,,,,,,,,,NA
54441,Sit,html.Page,1_3_8_0,NA,form submission,21206,2400032,2400050,2400078,2421284,2421285,2020-05-30T12:55:34Z,,,,,,,,,,,,,,,,,,,,,,,,,,NA
54441,Seq,flow.Sequence,1_3_8,NA,completion,21206,2400032,2400050,2400078,2421284,2421287,2020-05-30T12:55:34Z,,,,,,,,,,,,,,,,,,,,,,,,,,NA
54441,Sit,html.Page,1_3_9_0,NA,form submission,26868,2421288,2421310,2421338,2448206,2448207,2020-05-30T12:56:01Z,,,,,,,,,,,,,,,,,,,,,,,,,,NA
54441,Seq,flow.Sequence,1_3_9,NA,completion,26868,2421287,2421310,2421338,2448206,2448208,2020-05-30T12:56:01Z,,,,,,,,,,,,,,,,,,,,,,,,,,NA
54441,Loop2,flow.Loop,1_3,NA,completion,1767955,680210,680216,680251,2448206,2448209,2020-05-30T12:56:01Z,,,,,,,,,,,,,,,,,,,,,,,,,,NA
54441,Progress,html.Page,1_4,NA,form submission,1381,2448210,2448222,2448232,2449613,2449613,2020-05-30T12:56:03Z,,,,,,,,,,,,,,,,,,,,,,,,,,NA
54441,Sit,html.Page,1_5_0_0,NA,form submission,25355,2449615,2449630,2449667,2475022,2475023,2020-05-30T12:56:28Z,,,,,,,,,,,,,,,,,,,,,,,,,,NA
54441,Seq,flow.Sequence,1_5_0,NA,completion,25355,2449615,2449630,2449667,2475022,2475025,2020-05-30T12:56:28Z,,,,,,,,,,,,,,,,,,,,,,,,,,NA
54441,Sit,html.Page,1_5_1_0,NA,form submission,18575,2475026,2475044,2475082,2493657,2493658,2020-05-30T12:56:47Z,,,,,,,,,,,,,,,,,,,,,,,,,,NA
54441,Seq,flow.Sequence,1_5_1,NA,completion,18575,2475026,2475044,2475082,2493657,2493660,2020-05-30T12:56:47Z,,,,,,,,,,,,,,,,,,,,,,,,,,NA
54441,Sit,html.Page,1_5_2_0,NA,form submission,20820,2493662,2493679,2493707,2514527,2514529,2020-05-30T12:57:07Z,,,,,,,,,,,,,,,,,,,,,,,,,,NA
54441,Seq,flow.Sequence,1_5_2,NA,completion,20820,2493661,2493679,2493707,2514527,2514530,2020-05-30T12:57:07Z,,,,,,,,,,,,,,,,,,,,,,,,,,NA
54441,Sit,html.Page,1_5_3_0,NA,form submission,16021,2514532,2514547,2514582,2530603,2530604,2020-05-30T12:57:24Z,,,,,,,,,,,,,,,,,,,,,,,,,,NA
54441,Seq,flow.Sequence,1_5_3,NA,completion,16021,2514531,2514547,2514582,2530603,2530605,2020-05-30T12:57:24Z,,,,,,,,,,,,,,,,,,,,,,,,,,NA
54441,Sit,html.Page,1_5_4_0,NA,form submission,30031,2530606,2530625,2530657,2560688,2560690,2020-05-30T12:57:54Z,,,,,,,,,,,,,,,,,,,,,,,,,,NA
54441,Seq,flow.Sequence,1_5_4,NA,completion,30031,2530606,2530625,2530657,2560688,2560691,2020-05-30T12:57:54Z,,,,,,,,,,,,,,,,,,,,,,,,,,NA
54441,Sit,html.Page,1_5_5_0,NA,form submission,21874,2560692,2560710,2560738,2582612,2582613,2020-05-30T12:58:16Z,,,,,,,,,,,,,,,,,,,,,,,,,,NA
54441,Seq,flow.Sequence,1_5_5,NA,completion,21874,2560692,2560710,2560738,2582612,2582615,2020-05-30T12:58:16Z,,,,,,,,,,,,,,,,,,,,,,,,,,NA
54441,Sit,html.Page,1_5_6_0,NA,form submission,25679,2582616,2582633,2582667,2608346,2608348,2020-05-30T12:58:41Z,,,,,,,,,,,,,,,,,,,,,,,,,,NA
54441,Seq,flow.Sequence,1_5_6,NA,completion,25679,2582616,2582633,2582667,2608346,2608349,2020-05-30T12:58:41Z,,,,,,,,,,,,,,,,,,,,,,,,,,NA
54441,Sit,html.Page,1_5_7_0,NA,form submission,17233,2608350,2608367,2608395,2625628,2625629,2020-05-30T12:58:59Z,,,,,,,,,,,,,,,,,,,,,,,,,,NA
54441,Seq,flow.Sequence,1_5_7,NA,completion,17233,2608349,2608367,2608395,2625628,2625630,2020-05-30T12:58:59Z,,,,,,,,,,,,,,,,,,,,,,,,,,NA
54441,Sit,html.Page,1_5_8_0,NA,form submission,14644,2625631,2625650,2625680,2640324,2640326,2020-05-30T12:59:13Z,,,,,,,,,,,,,,,,,,,,,,,,,,NA
54441,Seq,flow.Sequence,1_5_8,NA,completion,14644,2625631,2625650,2625680,2640324,2640327,2020-05-30T12:59:13Z,,,,,,,,,,,,,,,,,,,,,,,,,,NA
54441,Sit,html.Page,1_5_9_0,NA,form submission,19956,2640328,2640347,2640384,2660340,2660342,2020-05-30T12:59:33Z,,,,,,,,,,,,,,,,,,,,,,,,,,NA
54441,Seq,flow.Sequence,1_5_9,NA,completion,19956,2640328,2640347,2640384,2660340,2660344,2020-05-30T12:59:33Z,,,,,,,,,,,,,,,,,,,,,,,,,,NA
54441,Loop3,flow.Loop,1_5,NA,completion,210673,2449614,2449630,2449667,2660340,2660345,2020-05-30T12:59:33Z,,,,,,,,,,,,,,,,,,,,,,,,,,NA
54441,Risk_assessment,flow.Sequence,1,NA,completion,2467483,192839,192846,192857,2660340,2660346,2020-05-30T12:59:33Z,,,,,,,,,,,,,,,,,,,,,,,,,,NA
54441,vp,html.Page,2_0_0,NA,form submission,9895,2660346,2660358,2660367,2670262,2670263,2020-05-30T12:59:43Z,,,,,,,,,,,,,,,,,,,,,,,,,,static/2.jpeg
54441,loop,flow.Loop,2_0,NA,completion,9895,2660346,2660358,2660367,2670262,2670264,2020-05-30T12:59:43Z,,,,,,,,,,,,,,,,,,,,,,,,,,NA
cf3ef,welcome,html.Page,0_0,NA,form submission,7783.7,1209,1214.64,1231.3,9015,9017,2020-05-30T14:02:15Z,,,,,,,,,,,,,,,,,,,,,,,,,,NA
cf3ef,dem,html.Page,0_1,NA,form submission,34545.78,9018,9011.56,9028.22,43574,43576,2020-05-30T14:02:50Z,,,,,,,,,,,,,,,,,,,,,,,,,,NA
cf3ef,BFI-10,html.Page,0_2,NA,form submission,20751.82,43577,43564.52,43581.18,64333,64333,2020-05-30T14:03:11Z,,,,,,,,,,,,,,,,,,,,,,,,,,NA
cf3ef,Dem,flow.Sequence,0,NA,completion,63101.7,1209,1214.64,1231.3,64333,64336,2020-05-30T14:03:11Z,,,,,,,,,,,,,,,,,,,,,,,,,,NA
cf3ef,SitIntro,html.Page,1_0,NA,form submission,19795.88,64338,64339.46,64356.12,84152,84152,2020-05-30T14:03:30Z,,,,,,,,,,,,,,,,,,,,,,,,,,NA
cf3ef,Sit,html.Page,1_1_0_0,NA,form submission,20364.1,84154,84148.24,84164.9,104529,104530,2020-05-30T14:03:51Z,,,,,,,,,,,,,,,,,,,,,,,,,,NA
cf3ef,Seq,flow.Sequence,1_1_0,NA,completion,20364.1,84154,84148.24,84164.9,104529,104530,2020-05-30T14:03:51Z,,,,,,,,,,,,,,,,,,,,,,,,,,NA
cf3ef,Sit,html.Page,1_1_1_0,NA,form submission,20256.16,104530,104540.18,104556.84,124813,124813,2020-05-30T14:04:11Z,,,,,,,,,,,,,,,,,,,,,,,,,,NA
cf3ef,Seq,flow.Sequence,1_1_1,NA,completion,20256.16,104530,104540.18,104556.84,124813,124814,2020-05-30T14:04:11Z,,,,,,,,,,,,,,,,,,,,,,,,,,NA
cf3ef,Sit,html.Page,1_1_2_0,NA,form submission,19978.94,124814,124815.4,124832.06,144811,144812,2020-05-30T14:04:31Z,,,,,,,,,,,,,,,,,,,,,,,,,,NA
cf3ef,Seq,flow.Sequence,1_1_2,NA,completion,19978.94,124814,124815.4,124832.06,144811,144814,2020-05-30T14:04:31Z,,,,,,,,,,,,,,,,,,,,,,,,,,NA
cf3ef,Sit,html.Page,1_1_3_0,NA,form submission,13016.02,144814,144807.32,144823.98,157840,157840,2020-05-30T14:04:44Z,,,,,,,,,,,,,,,,,,,,,,,,,,NA
cf3ef,Seq,flow.Sequence,1_1_3,NA,completion,13016.02,144814,144807.32,144823.98,157840,157841,2020-05-30T14:04:44Z,,,,,,,,,,,,,,,,,,,,,,,,,,NA
cf3ef,Sit,html.Page,1_1_4_0,NA,form submission,22194.78,157841,157835.56,157852.22,180047,180048,2020-05-30T14:05:06Z,,,,,,,,,,,,,,,,,,,,,,,,,,NA
cf3ef,Seq,flow.Sequence,1_1_4,NA,completion,22194.78,157841,157835.56,157852.22,180047,180048,2020-05-30T14:05:06Z,,,,,,,,,,,,,,,,,,,,,,,,,,NA
08bb7,welcome,html.Page,0_0,NA,form submission,30244,1643,1688,1725,31969,31971,2020-05-30T14:05:15Z,,,,,,,,,,,,,,,,,,,,,,,,,,NA
cf3ef,Sit,html.Page,1_1_5_0,NA,form submission,19304.32,180049,180060.02,180076.68,199381,199381,2020-05-30T14:05:26Z,,,,,,,,,,,,,,,,,,,,,,,,,,NA
cf3ef,Seq,flow.Sequence,1_1_5,NA,completion,19304.32,180049,180060.02,180076.68,199381,199383,2020-05-30T14:05:26Z,,,,,,,,,,,,,,,,,,,,,,,,,,NA
cf3ef,Sit,html.Page,1_1_6_0,NA,form submission,20169.76,199385,199385.58,199402.24,219572,219573,2020-05-30T14:05:46Z,,,,,,,,,,,,,,,,,,,,,,,,,,NA
cf3ef,Seq,flow.Sequence,1_1_6,NA,completion,20169.76,199384,199385.58,199402.24,219572,219574,2020-05-30T14:05:46Z,,,,,,,,,,,,,,,,,,,,,,,,,,NA
cf3ef,Sit,html.Page,1_1_7_0,NA,form submission,17221.82,219576,219577.52,219594.18,236816,236817,2020-05-30T14:06:03Z,,,,,,,,,,,,,,,,,,,,,,,,,,NA
cf3ef,Seq,flow.Sequence,1_1_7,NA,completion,17221.82,219576,219577.52,219594.18,236816,236817,2020-05-30T14:06:03Z,,,,,,,,,,,,,,,,,,,,,,,,,,NA
cf3ef,Sit,html.Page,1_1_8_0,NA,form submission,20338.7,236817,236820.64,236837.3,257176,257178,2020-05-30T14:06:23Z,,,,,,,,,,,,,,,,,,,,,,,,,,NA
cf3ef,Seq,flow.Sequence,1_1_8,NA,completion,20338.7,236817,236820.64,236837.3,257176,257184,2020-05-30T14:06:23Z,,,,,,,,,,,,,,,,,,,,,,,,,,NA
08bb7,dem,html.Page,0_1,NA,form submission,68851,31971,31986,32016,100867,100868,2020-05-30T14:06:24Z,,,,,,,,,,,,,,,,,,,,,,,,,,NA
cf3ef,Sit,html.Page,1_1_9_0,NA,form submission,18222.16,257187,257179.18,257195.84,275418,275419,2020-05-30T14:06:42Z,,,,,,,,,,,,,,,,,,,,,,,,,,NA
cf3ef,Seq,flow.Sequence,1_1_9,NA,completion,18222.16,257186,257179.18,257195.84,275418,275421,2020-05-30T14:06:42Z,,,,,,,,,,,,,,,,,,,,,,,,,,NA
cf3ef,Loop1,flow.Loop,1_1,NA,completion,191253.1,84154,84148.24,84164.9,275418,275424,2020-05-30T14:06:42Z,,,,,,,,,,,,,,,,,,,,,,,,,,NA
cf3ef,Progress,html.Page,1_2,NA,form submission,2960.38,275426,275421.96,275438.62,278399,278401,2020-05-30T14:06:45Z,,,,,,,,,,,,,,,,,,,,,,,,,,NA
cf3ef,Sit,html.Page,1_3_0_0,NA,form submission,15624.3,278402,278404.04,278420.7,294045,294045,2020-05-30T14:07:00Z,,,,,,,,,,,,,,,,,,,,,,,,,,NA
cf3ef,Seq,flow.Sequence,1_3_0,NA,completion,15624.3,278402,278404.04,278420.7,294045,294045,2020-05-30T14:07:00Z,,,,,,,,,,,,,,,,,,,,,,,,,,NA
cf3ef,Sit,html.Page,1_3_1_0,NA,form submission,20341.6,294045,294047.74,294064.4,314406,314407,2020-05-30T14:07:21Z,,,,,,,,,,,,,,,,,,,,,,,,,,NA
cf3ef,Seq,flow.Sequence,1_3_1,NA,completion,20341.6,294045,294047.74,294064.4,314406,314408,2020-05-30T14:07:21Z,,,,,,,,,,,,,,,,,,,,,,,,,,NA
08bb7,BFI-10,html.Page,0_2,NA,form submission,66501,100869,100883,100921,167422,167426,2020-05-30T14:07:31Z,,,,,,,,,,,,,,,,,,,,,,,,,,NA
08bb7,Dem,flow.Sequence,0,NA,completion,165697,1642,1688,1725,167422,167430,2020-05-30T14:07:31Z,,,,,,,,,,,,,,,,,,,,,,,,,,NA
cf3ef,Sit,html.Page,1_3_2_0,NA,form submission,16832.06,314408,314406.28,314422.94,331255,331258,2020-05-30T14:07:38Z,,,,,,,,,,,,,,,,,,,,,,,,,,NA
cf3ef,Seq,flow.Sequence,1_3_2,NA,completion,16832.06,314408,314406.28,314422.94,331255,331261,2020-05-30T14:07:38Z,,,,,,,,,,,,,,,,,,,,,,,,,,NA
cf3ef,Sit,html.Page,1_3_3_0,NA,form submission,19568.08,331263,331266.26,331282.92,350851,350852,2020-05-30T14:07:57Z,,,,,,,,,,,,,,,,,,,,,,,,,,NA
cf3ef,Seq,flow.Sequence,1_3_3,NA,completion,19568.08,331263,331266.26,331282.92,350851,350853,2020-05-30T14:07:57Z,,,,,,,,,,,,,,,,,,,,,,,,,,NA
cf3ef,Sit,html.Page,1_3_4_0,NA,form submission,19551.88,350854,350858.46,350875.12,370427,370428,2020-05-30T14:08:17Z,,,,,,,,,,,,,,,,,,,,,,,,,,NA
cf3ef,Seq,flow.Sequence,1_3_4,NA,completion,19551.88,350854,350858.46,350875.12,370427,370429,2020-05-30T14:08:17Z,,,,,,,,,,,,,,,,,,,,,,,,,,NA
08bb7,SitIntro,html.Page,1_0,NA,form submission,47799,167430,167443,167462,215261,215261,2020-05-30T14:08:19Z,,,,,,,,,,,,,,,,,,,,,,,,,,NA
cf3ef,Sit,html.Page,1_3_5_0,NA,form submission,14385.32,370430,370434.02,370450.68,384836,384840,2020-05-30T14:08:31Z,,,,,,,,,,,,,,,,,,,,,,,,,,NA
cf3ef,Seq,flow.Sequence,1_3_5,NA,completion,14385.32,370429,370434.02,370450.68,384836,384844,2020-05-30T14:08:31Z,,,,,,,,,,,,,,,,,,,,,,,,,,NA
cf3ef,Sit,html.Page,1_3_6_0,NA,form submission,12091.36,384846,384844.98,384861.64,396953,396954,2020-05-30T14:08:43Z,,,,,,,,,,,,,,,,,,,,,,,,,,NA
cf3ef,Seq,flow.Sequence,1_3_6,NA,completion,12091.36,384845,384844.98,384861.64,396953,396955,2020-05-30T14:08:43Z,,,,,,,,,,,,,,,,,,,,,,,,,,NA
cf3ef,Sit,html.Page,1_3_7_0,NA,form submission,24178.54,396957,396956.8,396973.46,421152,421153,2020-05-30T14:09:07Z,,,,,,,,,,,,,,,,,,,,,,,,,,NA
cf3ef,Seq,flow.Sequence,1_3_7,NA,completion,24178.54,396957,396956.8,396973.46,421152,421155,2020-05-30T14:09:07Z,,,,,,,,,,,,,,,,,,,,,,,,,,NA
08bb7,Sit,html.Page,1_1_0_0,NA,form submission,62067,215262,215280,215318,277385,277387,2020-05-30T14:09:21Z,,,,,,,,,,,,,,,,,,,,,,,,,,NA
08bb7,Seq,flow.Sequence,1_1_0,NA,completion,62067,215262,215280,215318,277385,277388,2020-05-30T14:09:21Z,,,,,,,,,,,,,,,,,,,,,,,,,,NA
cf3ef,Sit,html.Page,1_3_8_0,NA,form submission,16005.6,421156,421147.08,421180.4,437186,437188,2020-05-30T14:09:23Z,,,,,,,,,,,,,,,,,,,,,,,,,,NA
cf3ef,Seq,flow.Sequence,1_3_8,NA,completion,16005.6,421156,421147.08,421180.4,437186,437194,2020-05-30T14:09:23Z,,,,,,,,,,,,,,,,,,,,,,,,,,NA
cf3ef,Sit,html.Page,1_3_9_0,NA,form submission,21089.68,437195,437190.66,437207.32,458297,458299,2020-05-30T14:09:45Z,,,,,,,,,,,,,,,,,,,,,,,,,,NA
cf3ef,Seq,flow.Sequence,1_3_9,NA,completion,21089.68,437195,437190.66,437207.32,458297,458302,2020-05-30T14:09:45Z,,,,,,,,,,,,,,,,,,,,,,,,,,NA
cf3ef,Loop2,flow.Loop,1_3,NA,completion,179876.3,278402,278404.04,278420.7,458297,458304,2020-05-30T14:09:45Z,,,,,,,,,,,,,,,,,,,,,,,,,,NA
cf3ef,Progress,html.Page,1_4,NA,form submission,2034.46,458305,458298.88,458315.54,460350,460350,2020-05-30T14:09:47Z,,,,,,,,,,,,,,,,,,,,,,,,,,NA
08bb7,Sit,html.Page,1_1_1_0,NA,form submission,42763,277389,277416,277454,320217,320219,2020-05-30T14:10:03Z,,,,,,,,,,,,,,,,,,,,,,,,,,NA
08bb7,Seq,flow.Sequence,1_1_1,NA,completion,42763,277388,277416,277454,320217,320219,2020-05-30T14:10:03Z,,,,,,,,,,,,,,,,,,,,,,,,,,NA
cf3ef,Sit,html.Page,1_5_0_0,NA,form submission,21706.24,460353,460348.1,460364.76,482071,482071,2020-05-30T14:10:08Z,,,,,,,,,,,,,,,,,,,,,,,,,,NA
cf3ef,Seq,flow.Sequence,1_5_0,NA,completion,21706.24,460352,460348.1,460364.76,482071,482073,2020-05-30T14:10:08Z,,,,,,,,,,,,,,,,,,,,,,,,,,NA
cf3ef,Sit,html.Page,1_5_1_0,NA,form submission,20160.56,482075,482072.78,482089.44,502250,502251,2020-05-30T14:10:29Z,,,,,,,,,,,,,,,,,,,,,,,,,,NA
cf3ef,Seq,flow.Sequence,1_5_1,NA,completion,20160.56,482074,482072.78,482089.44,502250,502252,2020-05-30T14:10:29Z,,,,,,,,,,,,,,,,,,,,,,,,,,NA
cf3ef,Sit,html.Page,1_5_2_0,NA,form submission,17220.22,502254,502248.12,502264.78,519485,519485,2020-05-30T14:10:46Z,,,,,,,,,,,,,,,,,,,,,,,,,,NA
cf3ef,Seq,flow.Sequence,1_5_2,NA,completion,17220.22,502254,502248.12,502264.78,519485,519485,2020-05-30T14:10:46Z,,,,,,,,,,,,,,,,,,,,,,,,,,NA
08bb7,Sit,html.Page,1_1_2_0,NA,form submission,44228,320219,320236,320268,364496,364497,2020-05-30T14:10:48Z,,,,,,,,,,,,,,,,,,,,,,,,,,NA
08bb7,Seq,flow.Sequence,1_1_2,NA,completion,44228,320219,320236,320268,364496,364499,2020-05-30T14:10:48Z,,,,,,,,,,,,,,,,,,,,,,,,,,NA
cf3ef,Sit,html.Page,1_5_3_0,NA,form submission,22502.1,519485,519491.24,519507.9,542010,542011,2020-05-30T14:11:08Z,,,,,,,,,,,,,,,,,,,,,,,,,,NA
cf3ef,Seq,flow.Sequence,1_5_3,NA,completion,22502.1,519485,519491.24,519507.9,542010,542013,2020-05-30T14:11:08Z,,,,,,,,,,,,,,,,,,,,,,,,,,NA
cf3ef,Sit,html.Page,1_5_4_0,NA,form submission,13937.88,542014,542015.46,542032.12,555970,555971,2020-05-30T14:11:22Z,,,,,,,,,,,,,,,,,,,,,,,,,,NA
cf3ef,Seq,flow.Sequence,1_5_4,NA,completion,13937.88,542013,542015.46,542032.12,555970,555972,2020-05-30T14:11:22Z,,,,,,,,,,,,,,,,,,,,,,,,,,NA
cf3ef,Sit,html.Page,1_5_5_0,NA,form submission,23017.68,555972,555976.66,555993.32,579011,579012,2020-05-30T14:11:45Z,,,,,,,,,,,,,,,,,,,,,,,,,,NA
cf3ef,Seq,flow.Sequence,1_5_5,NA,completion,23017.68,555972,555976.66,555993.32,579011,579013,2020-05-30T14:11:45Z,,,,,,,,,,,,,,,,,,,,,,,,,,NA
cf3ef,Sit,html.Page,1_5_6_0,NA,form submission,15121.88,579014,579017.46,579034.12,594156,594157,2020-05-30T14:12:00Z,,,,,,,,,,,,,,,,,,,,,,,,,,NA
cf3ef,Seq,flow.Sequence,1_5_6,NA,completion,15121.88,579014,579017.46,579034.12,594156,594159,2020-05-30T14:12:00Z,,,,,,,,,,,,,,,,,,,,,,,,,,NA
cf3ef,Sit,html.Page,1_5_7_0,NA,form submission,15171.02,594159,594161.32,594177.98,609349,609350,2020-05-30T14:12:16Z,,,,,,,,,,,,,,,,,,,,,,,,,,NA
cf3ef,Seq,flow.Sequence,1_5_7,NA,completion,15171.02,594159,594161.32,594177.98,609349,609352,2020-05-30T14:12:16Z,,,,,,,,,,,,,,,,,,,,,,,,,,NA
08bb7,Sit,html.Page,1_1_3_0,NA,form submission,92907,364500,364521,364556,457463,457463,2020-05-30T14:12:21Z,,,,,,,,,,,,,,,,,,,,,,,,,,NA
08bb7,Seq,flow.Sequence,1_1_3,NA,completion,92907,364500,364521,364556,457463,457463,2020-05-30T14:12:21Z,,,,,,,,,,,,,,,,,,,,,,,,,,NA
cf3ef,Sit,html.Page,1_5_8_0,NA,form submission,19339.04,609353,609355.3,609371.96,628711,628711,2020-05-30T14:12:35Z,,,,,,,,,,,,,,,,,,,,,,,,,,NA
cf3ef,Seq,flow.Sequence,1_5_8,NA,completion,19339.04,609353,609355.3,609371.96,628711,628713,2020-05-30T14:12:35Z,,,,,,,,,,,,,,,,,,,,,,,,,,NA
08bb7,Sit,html.Page,1_1_4_0,NA,form submission,37091,457464,457481,457510,494601,494602,2020-05-30T14:12:58Z,,,,,,,,,,,,,,,,,,,,,,,,,,NA
08bb7,Seq,flow.Sequence,1_1_4,NA,completion,37091,457464,457481,457510,494601,494602,2020-05-30T14:12:58Z,,,,,,,,,,,,,,,,,,,,,,,,,,NA
cf3ef,Sit,html.Page,1_5_9_0,NA,form submission,26773.04,628714,628714.3,628730.96,655504,655506,2020-05-30T14:13:02Z,,,,,,,,,,,,,,,,,,,,,,,,,,NA
cf3ef,Seq,flow.Sequence,1_5_9,NA,completion,26773.04,628714,628714.3,628730.96,655504,655508,2020-05-30T14:13:02Z,,,,,,,,,,,,,,,,,,,,,,,,,,NA
cf3ef,Loop3,flow.Loop,1_5,NA,completion,195139.24,460351,460348.1,460364.76,655504,655508,2020-05-30T14:13:02Z,,,,,,,,,,,,,,,,,,,,,,,,,,NA
cf3ef,Risk_assessment,flow.Sequence,1,NA,completion,591147.88,64338,64339.46,64356.12,655504,655508,2020-05-30T14:13:02Z,,,,,,,,,,,,,,,,,,,,,,,,,,NA
cf3ef,vp,html.Page,2_0_0,NA,form submission,11479.76,655508,655503.58,655520.24,667000,667001,2020-05-30T14:13:13Z,,,,,,,,,,,,,,,,,,,,,,,,,,static/1.jpeg
cf3ef,loop,flow.Loop,2_0,NA,completion,11479.76,655508,655503.58,655520.24,667000,667002,2020-05-30T14:13:13Z,,,,,,,,,,,,,,,,,,,,,,,,,,NA
08bb7,Sit,html.Page,1_1_5_0,NA,form submission,39385,494603,494621,494655,534040,534041,2020-05-30T14:13:37Z,,,,,,,,,,,,,,,,,,,,,,,,,,NA
08bb7,Seq,flow.Sequence,1_1_5,NA,completion,39385,494603,494621,494655,534040,534041,2020-05-30T14:13:37Z,,,,,,,,,,,,,,,,,,,,,,,,,,NA
08bb7,Sit,html.Page,1_1_6_0,NA,form submission,32070,534042,534067,534103,566173,566173,2020-05-30T14:14:09Z,,,,,,,,,,,,,,,,,,,,,,,,,,NA
08bb7,Seq,flow.Sequence,1_1_6,NA,completion,32070,534041,534067,534103,566173,566174,2020-05-30T14:14:09Z,,,,,,,,,,,,,,,,,,,,,,,,,,NA
08bb7,Sit,html.Page,1_1_7_0,NA,form submission,89371,566174,566196,566241,655612,655614,2020-05-30T14:15:39Z,,,,,,,,,,,,,,,,,,,,,,,,,,NA
08bb7,Seq,flow.Sequence,1_1_7,NA,completion,89371,566174,566196,566241,655612,655616,2020-05-30T14:15:39Z,,,,,,,,,,,,,,,,,,,,,,,,,,NA
08bb7,Sit,html.Page,1_1_8_0,NA,form submission,27273,655617,655637,655666,682939,682940,2020-05-30T14:16:06Z,,,,,,,,,,,,,,,,,,,,,,,,,,NA
08bb7,Seq,flow.Sequence,1_1_8,NA,completion,27273,655617,655637,655666,682939,682940,2020-05-30T14:16:06Z,,,,,,,,,,,,,,,,,,,,,,,,,,NA
08bb7,Sit,html.Page,1_1_9_0,NA,form submission,52844,682942,682960,682992,735836,735836,2020-05-30T14:16:59Z,,,,,,,,,,,,,,,,,,,,,,,,,,NA
08bb7,Seq,flow.Sequence,1_1_9,NA,completion,52844,682942,682960,682992,735836,735837,2020-05-30T14:16:59Z,,,,,,,,,,,,,,,,,,,,,,,,,,NA
08bb7,Loop1,flow.Loop,1_1,NA,completion,520518,215262,215280,215318,735836,735837,2020-05-30T14:16:59Z,,,,,,,,,,,,,,,,,,,,,,,,,,NA
08bb7,Progress,html.Page,1_2,NA,form submission,5331,735837,735847,735856,741187,741187,2020-05-30T14:17:04Z,,,,,,,,,,,,,,,,,,,,,,,,,,NA
08bb7,Sit,html.Page,1_3_0_0,NA,form submission,59709,741188,741220,741260,800969,800971,2020-05-30T14:18:04Z,,,,,,,,,,,,,,,,,,,,,,,,,,NA
08bb7,Seq,flow.Sequence,1_3_0,NA,completion,59709,741188,741220,741260,800969,800972,2020-05-30T14:18:04Z,,,,,,,,,,,,,,,,,,,,,,,,,,NA
08bb7,Sit,html.Page,1_3_1_0,NA,form submission,50611,800972,801001,801045,851656,851657,2020-05-30T14:18:55Z,,,,,,,,,,,,,,,,,,,,,,,,,,NA
08bb7,Seq,flow.Sequence,1_3_1,NA,completion,50611,800972,801001,801045,851656,851658,2020-05-30T14:18:55Z,,,,,,,,,,,,,,,,,,,,,,,,,,NA
08bb7,Sit,html.Page,1_3_2_0,NA,form submission,42047,851659,851680,851712,893759,893760,2020-05-30T14:19:37Z,,,,,,,,,,,,,,,,,,,,,,,,,,NA
08bb7,Seq,flow.Sequence,1_3_2,NA,completion,42047,851659,851680,851712,893759,893760,2020-05-30T14:19:37Z,,,,,,,,,,,,,,,,,,,,,,,,,,NA
08bb7,Sit,html.Page,1_3_3_0,NA,form submission,108706,893761,893790,893838,1002544,1002558,2020-05-30T14:21:46Z,,,,,,,,,,,,,,,,,,,,,,,,,,NA
08bb7,Seq,flow.Sequence,1_3_3,NA,completion,108706,893761,893790,893838,1002544,1002561,2020-05-30T14:21:46Z,,,,,,,,,,,,,,,,,,,,,,,,,,NA
08bb7,Sit,html.Page,1_3_4_0,NA,form submission,24799,1002566,1002585,1002625,1027424,1027426,2020-05-30T14:22:11Z,,,,,,,,,,,,,,,,,,,,,,,,,,NA
08bb7,Seq,flow.Sequence,1_3_4,NA,completion,24799,1002565,1002585,1002625,1027424,1027427,2020-05-30T14:22:11Z,,,,,,,,,,,,,,,,,,,,,,,,,,NA
08bb7,Sit,html.Page,1_3_5_0,NA,form submission,33056,1027440,1027459,1027501,1060557,1060559,2020-05-30T14:22:44Z,,,,,,,,,,,,,,,,,,,,,,,,,,NA
08bb7,Seq,flow.Sequence,1_3_5,NA,completion,33056,1027440,1027459,1027501,1060557,1060560,2020-05-30T14:22:44Z,,,,,,,,,,,,,,,,,,,,,,,,,,NA
08bb7,Sit,html.Page,1_3_6_0,NA,form submission,55401,1060561,1060581,1060613,1116014,1116015,2020-05-30T14:23:39Z,,,,,,,,,,,,,,,,,,,,,,,,,,NA
08bb7,Seq,flow.Sequence,1_3_6,NA,completion,55401,1060561,1060581,1060613,1116014,1116016,2020-05-30T14:23:39Z,,,,,,,,,,,,,,,,,,,,,,,,,,NA
08bb7,Sit,html.Page,1_3_7_0,NA,form submission,31863,1116017,1116032,1116066,1147929,1147930,2020-05-30T14:24:11Z,,,,,,,,,,,,,,,,,,,,,,,,,,NA
08bb7,Seq,flow.Sequence,1_3_7,NA,completion,31863,1116016,1116032,1116066,1147929,1147931,2020-05-30T14:24:11Z,,,,,,,,,,,,,,,,,,,,,,,,,,NA
08bb7,Sit,html.Page,1_3_8_0,NA,form submission,32229,1147932,1147949,1147986,1180215,1180216,2020-05-30T14:24:43Z,,,,,,,,,,,,,,,,,,,,,,,,,,NA
08bb7,Seq,flow.Sequence,1_3_8,NA,completion,32229,1147932,1147949,1147986,1180215,1180225,2020-05-30T14:24:43Z,,,,,,,,,,,,,,,,,,,,,,,,,,NA
08bb7,Sit,html.Page,1_3_9_0,NA,form submission,33632,1180229,1180242,1180271,1213903,1213905,2020-05-30T14:25:17Z,,,,,,,,,,,,,,,,,,,,,,,,,,NA
08bb7,Seq,flow.Sequence,1_3_9,NA,completion,33632,1180228,1180242,1180271,1213903,1213906,2020-05-30T14:25:17Z,,,,,,,,,,,,,,,,,,,,,,,,,,NA
08bb7,Loop2,flow.Loop,1_3,NA,completion,472643,741188,741220,741260,1213903,1213907,2020-05-30T14:25:17Z,,,,,,,,,,,,,,,,,,,,,,,,,,NA
08bb7,Progress,html.Page,1_4,NA,form submission,6040,1213907,1213921,1213928,1219968,1219969,2020-05-30T14:25:23Z,,,,,,,,,,,,,,,,,,,,,,,,,,NA
08bb7,Sit,html.Page,1_5_0_0,NA,form submission,31610,1219974,1219993,1220030,1251640,1251642,2020-05-30T14:25:55Z,,,,,,,,,,,,,,,,,,,,,,,,,,NA
08bb7,Seq,flow.Sequence,1_5_0,NA,completion,31610,1219974,1219993,1220030,1251640,1251643,2020-05-30T14:25:55Z,,,,,,,,,,,,,,,,,,,,,,,,,,NA
08bb7,Sit,html.Page,1_5_1_0,NA,form submission,30730,1251644,1251662,1251696,1282426,1282427,2020-05-30T14:26:26Z,,,,,,,,,,,,,,,,,,,,,,,,,,NA
08bb7,Seq,flow.Sequence,1_5_1,NA,completion,30730,1251644,1251662,1251696,1282426,1282428,2020-05-30T14:26:26Z,,,,,,,,,,,,,,,,,,,,,,,,,,NA
08bb7,Sit,html.Page,1_5_2_0,NA,form submission,46540,1282429,1282455,1282501,1329041,1329042,2020-05-30T14:27:12Z,,,,,,,,,,,,,,,,,,,,,,,,,,NA
08bb7,Seq,flow.Sequence,1_5_2,NA,completion,46540,1282429,1282455,1282501,1329041,1329043,2020-05-30T14:27:12Z,,,,,,,,,,,,,,,,,,,,,,,,,,NA
08bb7,Sit,html.Page,1_5_3_0,NA,form submission,43790,1329044,1329062,1329093,1372883,1372883,2020-05-30T14:27:56Z,,,,,,,,,,,,,,,,,,,,,,,,,,NA
08bb7,Seq,flow.Sequence,1_5_3,NA,completion,43790,1329044,1329062,1329093,1372883,1372899,2020-05-30T14:27:56Z,,,,,,,,,,,,,,,,,,,,,,,,,,NA
08bb7,Sit,html.Page,1_5_4_0,NA,form submission,26279,1372900,1372918,1372951,1399230,1399232,2020-05-30T14:28:22Z,,,,,,,,,,,,,,,,,,,,,,,,,,NA
08bb7,Seq,flow.Sequence,1_5_4,NA,completion,26279,1372899,1372918,1372951,1399230,1399233,2020-05-30T14:28:22Z,,,,,,,,,,,,,,,,,,,,,,,,,,NA
08bb7,Sit,html.Page,1_5_5_0,NA,form submission,44020,1399234,1399256,1399295,1443315,1443317,2020-05-30T14:29:07Z,,,,,,,,,,,,,,,,,,,,,,,,,,NA
08bb7,Seq,flow.Sequence,1_5_5,NA,completion,44020,1399234,1399256,1399295,1443315,1443318,2020-05-30T14:29:07Z,,,,,,,,,,,,,,,,,,,,,,,,,,NA
08bb7,Sit,html.Page,1_5_6_0,NA,form submission,50156,1443318,1443337,1443378,1493534,1493536,2020-05-30T14:29:57Z,,,,,,,,,,,,,,,,,,,,,,,,,,NA
08bb7,Seq,flow.Sequence,1_5_6,NA,completion,50156,1443318,1443337,1443378,1493534,1493538,2020-05-30T14:29:57Z,,,,,,,,,,,,,,,,,,,,,,,,,,NA
08bb7,Sit,html.Page,1_5_7_0,NA,form submission,38369,1493539,1493559,1493603,1531972,1531977,2020-05-30T14:30:35Z,,,,,,,,,,,,,,,,,,,,,,,,,,NA
08bb7,Seq,flow.Sequence,1_5_7,NA,completion,38369,1493539,1493559,1493603,1531972,1531977,2020-05-30T14:30:35Z,,,,,,,,,,,,,,,,,,,,,,,,,,NA
08bb7,Sit,html.Page,1_5_8_0,NA,form submission,48247,1531978,1532000,1532040,1580287,1580289,2020-05-30T14:31:24Z,,,,,,,,,,,,,,,,,,,,,,,,,,NA
08bb7,Seq,flow.Sequence,1_5_8,NA,completion,48247,1531978,1532000,1532040,1580287,1580290,2020-05-30T14:31:24Z,,,,,,,,,,,,,,,,,,,,,,,,,,NA
08bb7,Sit,html.Page,1_5_9_0,NA,form submission,21317,1580291,1580308,1580347,1601664,1601665,2020-05-30T14:31:45Z,,,,,,,,,,,,,,,,,,,,,,,,,,NA
08bb7,Seq,flow.Sequence,1_5_9,NA,completion,21317,1580291,1580308,1580347,1601664,1601666,2020-05-30T14:31:45Z,,,,,,,,,,,,,,,,,,,,,,,,,,NA
08bb7,Loop3,flow.Loop,1_5,NA,completion,381634,1219974,1219993,1220030,1601664,1601669,2020-05-30T14:31:45Z,,,,,,,,,,,,,,,,,,,,,,,,,,NA
08bb7,Risk_assessment,flow.Sequence,1,NA,completion,1434202,167430,167443,167462,1601664,1601669,2020-05-30T14:31:45Z,,,,,,,,,,,,,,,,,,,,,,,,,,NA
08bb7,vp,html.Page,2_0_0,NA,form submission,17191,1601676,1601692,1601754,1618945,1618946,2020-05-30T14:32:02Z,,,,,,,,,,,,,,,,,,,,,,,,,,static/2.jpeg
08bb7,loop,flow.Loop,2_0,NA,completion,17191,1601670,1601692,1601754,1618945,1618947,2020-05-30T14:32:02Z,,,,,,,,,,,,,,,,,,,,,,,,,,NA
dd9aa,welcome,html.Page,0_0,NA,form submission,45799.306999992,853.89999998733,865.83,881.893,46681.199999992,46683.000000077,2020-05-30T16:00:57Z,,,,,,,,,,,,,,,,,,,,,,,,,,NA
dd9aa,dem,html.Page,0_1,NA,form submission,29161.537000009,46684.000000008,46674.298,46690.363,75851.900000009,75852.300000028,2020-05-30T16:01:26Z,,,,,,,,,,,,,,,,,,,,,,,,,,NA
dd9aa,BFI-10,html.Page,0_2,NA,form submission,24816.231999991,75852.700000047,75845.206,75861.268,100677.49999999,100677.90000001,2020-05-30T16:01:51Z,,,,,,,,,,,,,,,,,,,,,,,,,,NA
dd9aa,Dem,flow.Sequence,0,NA,completion,99795.606999991,853.89999998733,865.83,881.893,100677.49999999,100681.50000006,2020-05-30T16:01:51Z,,,,,,,,,,,,,,,,,,,,,,,,,,NA
dd9aa,SitIntro,html.Page,1_0,NA,form submission,32225.047000062,100681.70000007,100673.188,100689.253,132914.30000006,132915.40000006,2020-05-30T16:02:35Z,,,,,,,,,,,,,,,,,,,,,,,,,,NA
dd9aa,Sit,html.Page,1_1_0_0,NA,form submission,34753.019000009,132916.80000001,132915.887,132964.081,167717.10000001,167718.30000007,2020-05-30T16:03:09Z,,,,,,,,,,,,,,,,,,,,,,,,,,NA
dd9aa,Seq,flow.Sequence,1_1_0,NA,completion,34753.019000009,132916.50000005,132915.887,132964.081,167717.10000001,167719.60000007,2020-05-30T16:03:09Z,,,,,,,,,,,,,,,,,,,,,,,,,,NA
dd9aa,Sit,html.Page,1_1_1_0,NA,form submission,108728.75200001,167720.39999999,167703.651,167751.848,276480.60000001,276481.00000003,2020-05-30T16:07:22Z,,,,,,,,,,,,,,,,,,,,,,,,,,NA
dd9aa,Seq,flow.Sequence,1_1_1,NA,completion,108728.75200001,167720.30000004,167703.651,167751.848,276480.60000001,276481.40000005,2020-05-30T16:07:22Z,,,,,,,,,,,,,,,,,,,,,,,,,,NA
dd9aa,Sit,html.Page,1_1_2_0,NA,form submission,26361.337000004,276481.60000006,276489.103,276505.163,302866.5,302867.70000006,2020-05-30T16:07:48Z,,,,,,,,,,,,,,,,,,,,,,,,,,NA
dd9aa,Seq,flow.Sequence,1_1_2,NA,completion,26361.337000004,276481.60000006,276489.103,276505.163,302866.5,302869.10000001,2020-05-30T16:07:48Z,,,,,,,,,,,,,,,,,,,,,,,,,,NA
dd9aa,Sit,html.Page,1_1_3_0,NA,form submission,29063.208999993,302870.10000006,302850.327,302914.591,331977.79999999,331979.00000005,2020-05-30T16:08:17Z,,,,,,,,,,,,,,,,,,,,,,,,,,NA
dd9aa,Seq,flow.Sequence,1_1_3,NA,completion,29063.208999993,302869.79999999,302850.327,302914.591,331977.79999999,331980.30000005,2020-05-30T16:08:17Z,,,,,,,,,,,,,,,,,,,,,,,,,,NA
dd9aa,Sit,html.Page,1_1_4_0,NA,form submission,21460.522000085,331981.20000004,331959.979,332008.178,353468.70000008,353469.09999999,2020-05-30T16:08:39Z,,,,,,,,,,,,,,,,,,,,,,,,,,NA
dd9aa,Seq,flow.Sequence,1_1_4,NA,completion,21460.522000085,331981.00000003,331959.979,332008.178,353468.70000008,353469.50000001,2020-05-30T16:08:39Z,,,,,,,,,,,,,,,,,,,,,,,,,,NA
dd9aa,Sit,html.Page,1_1_5_0,NA,form submission,20274.179999997,353469.70000002,353471.955,353488.02,373762.2,373762.70000008,2020-05-30T16:08:59Z,,,,,,,,,,,,,,,,,,,,,,,,,,NA
dd9aa,Seq,flow.Sequence,1_1_5,NA,completion,20274.179999997,353469.60000007,353471.955,353488.02,373762.2,373763.09999998,2020-05-30T16:08:59Z,,,,,,,,,,,,,,,,,,,,,,,,,,NA
dd9aa,Sit,html.Page,1_1_6_0,NA,form submission,18510.211999996,373763.29999999,373761.623,373777.688,392287.9,392288.40000008,2020-05-30T16:09:17Z,,,,,,,,,,,,,,,,,,,,,,,,,,NA
dd9aa,Seq,flow.Sequence,1_1_6,NA,completion,18510.211999996,373763.20000004,373761.623,373777.688,392287.9,392288.79999998,2020-05-30T16:09:17Z,,,,,,,,,,,,,,,,,,,,,,,,,,NA
dd9aa,Sit,html.Page,1_1_7_0,NA,form submission,18973.990000039,392289.10000005,392284.046,392300.11,411274.10000004,411274.50000006,2020-05-30T16:09:36Z,,,,,,,,,,,,,,,,,,,,,,,,,,NA
dd9aa,Seq,flow.Sequence,1_1_7,NA,completion,18973.990000039,392288.99999999,392284.046,392300.11,411274.10000004,411274.90000008,2020-05-30T16:09:36Z,,,,,,,,,,,,,,,,,,,,,,,,,,NA
dd9aa,Sit,html.Page,1_1_8_0,NA,form submission,18132.426000082,411275.10000009,411269.911,411285.974,429418.40000008,429418.70000004,2020-05-30T16:09:55Z,,,,,,,,,,,,,,,,,,,,,,,,,,NA
dd9aa,Seq,flow.Sequence,1_1_8,NA,completion,18132.426000082,411275.10000009,411269.911,411285.974,429418.40000008,429419.2,2020-05-30T16:09:55Z,,,,,,,,,,,,,,,,,,,,,,,,,,NA
dd9aa,Sit,html.Page,1_1_9_0,NA,form submission,21089.256999994,429419.30000007,429415.375,429431.443,450520.69999999,450521.90000005,2020-05-30T16:10:16Z,,,,,,,,,,,,,,,,,,,,,,,,,,NA
dd9aa,Seq,flow.Sequence,1_1_9,NA,completion,21089.256999994,429419.30000007,429415.375,429431.443,450520.69999999,450523.3,2020-05-30T16:10:16Z,,,,,,,,,,,,,,,,,,,,,,,,,,NA
dd9aa,Loop1,flow.Loop,1_1,NA,completion,317556.61899999,132916.30000004,132915.887,132964.081,450520.69999999,450524.39999999,2020-05-30T16:10:16Z,,,,,,,,,,,,,,,,,,,,,,,,,,NA
dd9aa,Progress,html.Page,1_2,NA,form submission,3960.4510000037,450525.10000009,450514.984,450531.049,454491.5,454492.30000004,2020-05-30T16:10:20Z,,,,,,,,,,,,,,,,,,,,,,,,,,NA
dd9aa,Sit,html.Page,1_3_0_0,NA,form submission,18419.882999982,454493.49999998,454498.595,454530.717,472950.59999998,472951,2020-05-30T16:10:38Z,,,,,,,,,,,,,,,,,,,,,,,,,,NA
dd9aa,Seq,flow.Sequence,1_3_0,NA,completion,18419.882999982,454493.30000009,454498.595,454530.717,472950.59999998,472951.40000002,2020-05-30T16:10:38Z,,,,,,,,,,,,,,,,,,,,,,,,,,NA
dd9aa,Sit,html.Page,1_3_1_0,NA,form submission,16705.104000063,472951.60000003,472956.63,472972.696,489677.80000006,489678.90000006,2020-05-30T16:10:55Z,,,,,,,,,,,,,,,,,,,,,,,,,,NA
dd9aa,Seq,flow.Sequence,1_3_1,NA,completion,16705.104000063,472951.60000003,472956.63,472972.696,489677.80000006,489680.20000006,2020-05-30T16:10:55Z,,,,,,,,,,,,,,,,,,,,,,,,,,NA
dd9aa,Sit,html.Page,1_3_2_0,NA,form submission,14179.401000058,489681.10000005,489662.108,489710.299,503889.70000006,503890.10000008,2020-05-30T16:11:09Z,,,,,,,,,,,,,,,,,,,,,,,,,,NA
dd9aa,Seq,flow.Sequence,1_3_2,NA,completion,14179.401000058,489680.90000004,489662.108,489710.299,503889.70000006,503890.40000003,2020-05-30T16:11:09Z,,,,,,,,,,,,,,,,,,,,,,,,,,NA
dd9aa,Sit,html.Page,1_3_3_0,NA,form submission,22258.156999994,503890.69999999,503894.777,503910.843,526168.99999999,526169.30000007,2020-05-30T16:11:31Z,,,,,,,,,,,,,,,,,,,,,,,,,,NA
dd9aa,Seq,flow.Sequence,1_3_3,NA,completion,22258.156999994,503890.60000004,503894.777,503910.843,526168.99999999,526169.80000003,2020-05-30T16:11:31Z,,,,,,,,,,,,,,,,,,,,,,,,,,NA
dd9aa,Sit,html.Page,1_3_4_0,NA,form submission,20323.08200002,526170.00000004,526174.757,526190.818,546513.90000002,546514.19999998,2020-05-30T16:11:52Z,,,,,,,,,,,,,,,,,,,,,,,,,,NA
dd9aa,Seq,flow.Sequence,1_3_4,NA,completion,20323.08200002,526169.89999998,526174.757,526190.818,546513.90000002,546514.70000006,2020-05-30T16:11:52Z,,,,,,,,,,,,,,,,,,,,,,,,,,NA
dd9aa,Sit,html.Page,1_3_5_0,NA,form submission,31882.192000014,546514.8,546511.343,546527.408,578409.60000001,578410.00000003,2020-05-30T16:12:24Z,,,,,,,,,,,,,,,,,,,,,,,,,,NA
dd9aa,Seq,flow.Sequence,1_3_5,NA,completion,31882.192000014,546514.8,546511.343,546527.408,578409.60000001,578410.29999999,2020-05-30T16:12:24Z,,,,,,,,,,,,,,,,,,,,,,,,,,NA
dd9aa,Sit,html.Page,1_3_6_0,NA,form submission,22068.513999991,578410.5,578415.221,578431.286,600499.79999999,600500.89999998,2020-05-30T16:12:46Z,,,,,,,,,,,,,,,,,,,,,,,,,,NA
dd9aa,Seq,flow.Sequence,1_3_6,NA,completion,22068.513999991,578410.5,578415.221,578431.286,600499.79999999,600502.10000004,2020-05-30T16:12:46Z,,,,,,,,,,,,,,,,,,,,,,,,,,NA
dd9aa,Sit,html.Page,1_3_7_0,NA,form submission,23848.830000053,600502.90000008,600487.675,600535.87,624384.70000005,624385.00000001,2020-05-30T16:13:10Z,,,,,,,,,,,,,,,,,,,,,,,,,,NA
dd9aa,Seq,flow.Sequence,1_3_7,NA,completion,23848.830000053,600502.80000002,600487.675,600535.87,624384.70000005,624385.50000009,2020-05-30T16:13:10Z,,,,,,,,,,,,,,,,,,,,,,,,,,NA
dd9aa,Sit,html.Page,1_3_8_0,NA,form submission,20667.579999986,624385.60000004,624393.253,624409.32,645076.89999999,645077.3,2020-05-30T16:13:30Z,,,,,,,,,,,,,,,,,,,,,,,,,,NA
dd9aa,Seq,flow.Sequence,1_3_8,NA,completion,20667.579999986,624385.60000004,624393.253,624409.32,645076.89999999,645077.60000008,2020-05-30T16:13:30Z,,,,,,,,,,,,,,,,,,,,,,,,,,NA
dd9aa,Sit,html.Page,1_3_9_0,NA,form submission,15516.055999992,645077.80000009,645086.578,645102.644,660618.69999999000,660619.70000004,2020-05-30T16:13:46Z,,,,,,,,,,,,,,,,,,,,,,,,,,NA
dd9aa,Seq,flow.Sequence,1_3_9,NA,completion,15516.055999992,645077.80000009,645086.578,645102.644,660618.69999999000,660620.89999998,2020-05-30T16:13:46Z,,,,,,,,,,,,,,,,,,,,,,,,,,NA
dd9aa,Loop2,flow.Loop,1_3,NA,completion,206087.98299999,454493.10000008,454498.595,454530.717,660618.69999999000,660621.60000007,2020-05-30T16:13:46Z,,,,,,,,,,,,,,,,,,,,,,,,,,NA
dd9aa,Progress,html.Page,1_4,NA,form submission,3735.0640000289,660622.00000009,660604.87,660620.936,664356.00000003,664356.90000001,2020-05-30T16:13:50Z,,,,,,,,,,,,,,,,,,,,,,,,,,NA
dd9aa,Sit,html.Page,1_5_0_0,NA,form submission,17831.693000047,664357.90000006,664363.763,664396.007,682227.70000005,682229.50000002,2020-05-30T16:14:07Z,,,,,,,,,,,,,,,,,,,,,,,,,,NA
dd9aa,Seq,flow.Sequence,1_5_0,NA,completion,17831.693000047,664357.8,664363.763,664396.007,682227.70000005,682236.20000004,2020-05-30T16:14:07Z,,,,,,,,,,,,,,,,,,,,,,,,,,NA
dd9aa,Sit,html.Page,1_5_1_0,NA,form submission,32572.994000084,682236.60000006,682225.083,682257.206,714830.20000008,714831.50000009,2020-05-30T16:14:40Z,,,,,,,,,,,,,,,,,,,,,,,,,,NA
dd9aa,Seq,flow.Sequence,1_5_1,NA,completion,32572.994000084,682236.60000006,682225.083,682257.206,714830.20000008,714833.10000005,2020-05-30T16:14:40Z,,,,,,,,,,,,,,,,,,,,,,,,,,NA
dd9aa,Sit,html.Page,1_5_2_0,NA,form submission,22948.676999982,714834.00000003,714818.931,714867.123,737815.79999998,737816.2,2020-05-30T16:15:03Z,,,,,,,,,,,,,,,,,,,,,,,,,,NA
dd9aa,Seq,flow.Sequence,1_5_2,NA,completion,22948.676999982,714833.80000002,714818.931,714867.123,737815.79999998,737816.70000008,2020-05-30T16:15:03Z,,,,,,,,,,,,,,,,,,,,,,,,,,NA
dd9aa,Sit,html.Page,1_5_3_0,NA,form submission,26298.76400006,737817.00000004,737822.472,737838.536,764137.30000006,764138.29999999,2020-05-30T16:15:29Z,,,,,,,,,,,,,,,,,,,,,,,,,,NA
dd9aa,Seq,flow.Sequence,1_5_3,NA,completion,26298.76400006,737816.80000003,737822.472,737838.536,764137.30000006,764139.39999999,2020-05-30T16:15:29Z,,,,,,,,,,,,,,,,,,,,,,,,,,NA
dd9aa,Sit,html.Page,1_5_4_0,NA,form submission,38917.920000034,764140.10000008,764119.03,764183.28,803101.20000003,803101.49999999,2020-05-30T16:16:08Z,,,,,,,,,,,,,,,,,,,,,,,,,,NA
dd9aa,Seq,flow.Sequence,1_5_4,NA,completion,38917.920000034,764139.90000007,764119.03,764183.28,803101.20000003,803101.80000006,2020-05-30T16:16:08Z,,,,,,,,,,,,,,,,,,,,,,,,,,NA
dd9aa,Sit,html.Page,1_5_5_0,NA,form submission,14669.579000019,803102.10000002,803107.654,803123.721,817793.30000002,817793.60000009,2020-05-30T16:16:23Z,,,,,,,,,,,,,,,,,,,,,,,,,,NA
dd9aa,Seq,flow.Sequence,1_5_5,NA,completion,14669.579000019,803102.10000002,803107.654,803123.721,817793.30000002,817793.99999999,2020-05-30T16:16:23Z,,,,,,,,,,,,,,,,,,,,,,,,,,NA
dd9aa,Sit,html.Page,1_5_6_0,NA,form submission,14995.64500005,817794.30000007,817789.591,817805.655,832801.30000005,832802.40000004,2020-05-30T16:16:38Z,,,,,,,,,,,,,,,,,,,,,,,,,,NA
dd9aa,Seq,flow.Sequence,1_5_6,NA,completion,14995.64500005,817794.30000007,817789.591,817805.655,832801.30000005,832803.79999999,2020-05-30T16:16:38Z,,,,,,,,,,,,,,,,,,,,,,,,,,NA
dd9aa,Sit,html.Page,1_5_7_0,NA,form submission,17089.166999992,832804.60000003,832793.829,832842.033,849931.19999999000,849931.60000001,2020-05-30T16:16:55Z,,,,,,,,,,,,,,,,,,,,,,,,,,NA
dd9aa,Seq,flow.Sequence,1_5_7,NA,completion,17089.166999992,832804.40000002,832793.829,832842.033,849931.19999999000,849931.90000008,2020-05-30T16:16:55Z,,,,,,,,,,,,,,,,,,,,,,,,,,NA
dd9aa,Sit,html.Page,1_5_8_0,NA,form submission,22202.648999983,849932.20000004,849932.887,849948.951,872151.59999998,872152,2020-05-30T16:17:17Z,,,,,,,,,,,,,,,,,,,,,,,,,,NA
dd9aa,Seq,flow.Sequence,1_5_8,NA,completion,22202.648999983,849932.20000004,849932.887,849948.951,872151.59999998,872152.50000008,2020-05-30T16:17:17Z,,,,,,,,,,,,,,,,,,,,,,,,,,NA
dd9aa,Sit,html.Page,1_5_9_0,NA,form submission,17802.386000081,872152.80000004,872148.952,872165.014,889967.40000008,889967.79999998,2020-05-30T16:17:35Z,,,,,,,,,,,,,,,,,,,,,,,,,,NA
dd9aa,Seq,flow.Sequence,1_5_9,NA,completion,17802.386000081,872152.69999998,872148.952,872165.014,889967.40000008,889968.2,2020-05-30T16:17:35Z,,,,,,,,,,,,,,,,,,,,,,,,,,NA
dd9aa,Loop3,flow.Loop,1_5,NA,completion,225571.39300008,664357.59999999,664363.763,664396.007,889967.40000008,889968.40000001,2020-05-30T16:17:35Z,,,,,,,,,,,,,,,,,,,,,,,,,,NA
dd9aa,Risk_assessment,flow.Sequence,1,NA,completion,789278.14700008,100681.70000007,100673.188,100689.253,889967.40000008,889968.50000008,2020-05-30T16:17:35Z,,,,,,,,,,,,,,,,,,,,,,,,,,NA
dd9aa,vp,html.Page,2_0_0,NA,form submission,30659.894000001,889968.80000003,889962.545,889978.606,920638.5,920639.00000008,2020-05-30T16:18:06Z,,,,,,,,,,,,,,,,,,,,,,,,,,static/5.jpeg
dd9aa,loop,flow.Loop,2_0,NA,completion,30659.894000001,889968.80000003,889962.545,889978.606,920638.5,920639.19999998,2020-05-30T16:18:06Z,,,,,,,,,,,,,,,,,,,,,,,,,,NA
b753e,welcome,html.Page,0_0,NA,form submission,11740,780,792,807,12547,12547,2020-05-30T16:58:33Z,,,,,,,,,,,,,,,,,,,,,,,,,,NA
b753e,dem,html.Page,0_1,NA,form submission,23327,12548,12552,12580,35907,35908,2020-05-30T16:58:57Z,,,,,,,,,,,,,,,,,,,,,,,,,,NA
b753e,BFI-10,html.Page,0_2,NA,form submission,46243,35909,35927,35957,82200,82201,2020-05-30T16:59:43Z,,,,,,,,,,,,,,,,,,,,,,,,,,NA
b753e,Dem,flow.Sequence,0,NA,completion,81393,780,792,807,82200,82203,2020-05-30T16:59:43Z,,,,,,,,,,,,,,,,,,,,,,,,,,NA
b753e,SitIntro,html.Page,1_0,NA,form submission,34392,82204,82211,82228,116620,116620,2020-05-30T17:00:17Z,,,,,,,,,,,,,,,,,,,,,,,,,,NA
b753e,Sit,html.Page,1_1_0_0,NA,form submission,42489,116621,116635,116670,159159,159159,2020-05-30T17:01:00Z,,,,,,,,,,,,,,,,,,,,,,,,,,NA
b753e,Seq,flow.Sequence,1_1_0,NA,completion,42489,116621,116635,116670,159159,159160,2020-05-30T17:01:00Z,,,,,,,,,,,,,,,,,,,,,,,,,,NA
b753e,Sit,html.Page,1_1_1_0,NA,form submission,27358,159161,159178,159218,186576,186576,2020-05-30T17:01:27Z,,,,,,,,,,,,,,,,,,,,,,,,,,NA
b753e,Seq,flow.Sequence,1_1_1,NA,completion,27358,159161,159178,159218,186576,186577,2020-05-30T17:01:27Z,,,,,,,,,,,,,,,,,,,,,,,,,,NA
b753e,Sit,html.Page,1_1_2_0,NA,form submission,26420,186577,186594,186630,213050,213051,2020-05-30T17:01:54Z,,,,,,,,,,,,,,,,,,,,,,,,,,NA
b753e,Seq,flow.Sequence,1_1_2,NA,completion,26420,186577,186594,186630,213050,213052,2020-05-30T17:01:54Z,,,,,,,,,,,,,,,,,,,,,,,,,,NA
b753e,Sit,html.Page,1_1_3_0,NA,form submission,126826,213052,213066,213103,339929,339931,2020-05-30T17:04:01Z,,,,,,,,,,,,,,,,,,,,,,,,,,NA
b753e,Seq,flow.Sequence,1_1_3,NA,completion,126826,213052,213066,213103,339929,339932,2020-05-30T17:04:01Z,,,,,,,,,,,,,,,,,,,,,,,,,,NA
b753e,Sit,html.Page,1_1_4_0,NA,form submission,36350,339932,339948,339986,376336,376336,2020-05-30T17:04:37Z,,,,,,,,,,,,,,,,,,,,,,,,,,NA
b753e,Seq,flow.Sequence,1_1_4,NA,completion,36350,339932,339948,339986,376336,376337,2020-05-30T17:04:37Z,,,,,,,,,,,,,,,,,,,,,,,,,,NA
b753e,Sit,html.Page,1_1_5_0,NA,form submission,20957,376338,376353,376395,397352,397353,2020-05-30T17:04:58Z,,,,,,,,,,,,,,,,,,,,,,,,,,NA
b753e,Seq,flow.Sequence,1_1_5,NA,completion,20957,376337,376353,376395,397352,397354,2020-05-30T17:04:58Z,,,,,,,,,,,,,,,,,,,,,,,,,,NA
b753e,Sit,html.Page,1_1_6_0,NA,form submission,24271,397355,397371,397403,421674,421674,2020-05-30T17:05:22Z,,,,,,,,,,,,,,,,,,,,,,,,,,NA
b753e,Seq,flow.Sequence,1_1_6,NA,completion,24271,397355,397371,397403,421674,421675,2020-05-30T17:05:22Z,,,,,,,,,,,,,,,,,,,,,,,,,,NA
b753e,Sit,html.Page,1_1_7_0,NA,form submission,15339,421675,421690,421725,437064,437065,2020-05-30T17:05:38Z,,,,,,,,,,,,,,,,,,,,,,,,,,NA
b753e,Seq,flow.Sequence,1_1_7,NA,completion,15339,421675,421690,421725,437064,437065,2020-05-30T17:05:38Z,,,,,,,,,,,,,,,,,,,,,,,,,,NA
b753e,Sit,html.Page,1_1_8_0,NA,form submission,25755,437066,437082,437119,462874,462874,2020-05-30T17:06:04Z,,,,,,,,,,,,,,,,,,,,,,,,,,NA
b753e,Seq,flow.Sequence,1_1_8,NA,completion,25755,437065,437082,437119,462874,462875,2020-05-30T17:06:04Z,,,,,,,,,,,,,,,,,,,,,,,,,,NA
b753e,Sit,html.Page,1_1_9_0,NA,form submission,17254,462875,462891,462926,480180,480181,2020-05-30T17:06:21Z,,,,,,,,,,,,,,,,,,,,,,,,,,NA
b753e,Seq,flow.Sequence,1_1_9,NA,completion,17254,462875,462891,462926,480180,480182,2020-05-30T17:06:21Z,,,,,,,,,,,,,,,,,,,,,,,,,,NA
b753e,Loop1,flow.Loop,1_1,NA,completion,363510,116621,116635,116670,480180,480183,2020-05-30T17:06:21Z,,,,,,,,,,,,,,,,,,,,,,,,,,NA
b753e,Progress,html.Page,1_2,NA,form submission,3635,480184,480189,480197,483832,483833,2020-05-30T17:06:25Z,,,,,,,,,,,,,,,,,,,,,,,,,,NA
b753e,Sit,html.Page,1_3_0_0,NA,form submission,26673,483834,483848,483883,510556,510557,2020-05-30T17:06:51Z,,,,,,,,,,,,,,,,,,,,,,,,,,NA
b753e,Seq,flow.Sequence,1_3_0,NA,completion,26673,483834,483848,483883,510556,510557,2020-05-30T17:06:51Z,,,,,,,,,,,,,,,,,,,,,,,,,,NA
b753e,Sit,html.Page,1_3_1_0,NA,form submission,20315,510557,510574,510605,530920,530920,2020-05-30T17:07:12Z,,,,,,,,,,,,,,,,,,,,,,,,,,NA
b753e,Seq,flow.Sequence,1_3_1,NA,completion,20315,510557,510574,510605,530920,530921,2020-05-30T17:07:12Z,,,,,,,,,,,,,,,,,,,,,,,,,,NA
b753e,Sit,html.Page,1_3_2_0,NA,form submission,67471,530922,530936,530972,598443,598443,2020-05-30T17:08:19Z,,,,,,,,,,,,,,,,,,,,,,,,,,NA
b753e,Seq,flow.Sequence,1_3_2,NA,completion,67471,530922,530936,530972,598443,598445,2020-05-30T17:08:19Z,,,,,,,,,,,,,,,,,,,,,,,,,,NA
b753e,Sit,html.Page,1_3_3_0,NA,form submission,78859,598445,598460,598498,677357,677358,2020-05-30T17:09:38Z,,,,,,,,,,,,,,,,,,,,,,,,,,NA
b753e,Seq,flow.Sequence,1_3_3,NA,completion,78859,598445,598460,598498,677357,677359,2020-05-30T17:09:38Z,,,,,,,,,,,,,,,,,,,,,,,,,,NA
b753e,Sit,html.Page,1_3_4_0,NA,form submission,117009,677360,677375,677416,794425,794426,2020-05-30T17:11:35Z,,,,,,,,,,,,,,,,,,,,,,,,,,NA
b753e,Seq,flow.Sequence,1_3_4,NA,completion,117009,677360,677375,677416,794425,794426,2020-05-30T17:11:35Z,,,,,,,,,,,,,,,,,,,,,,,,,,NA
b753e,Sit,html.Page,1_3_5_0,NA,form submission,16964,794427,794442,794478,811442,811442,2020-05-30T17:11:52Z,,,,,,,,,,,,,,,,,,,,,,,,,,NA
b753e,Seq,flow.Sequence,1_3_5,NA,completion,16964,794427,794442,794478,811442,811443,2020-05-30T17:11:52Z,,,,,,,,,,,,,,,,,,,,,,,,,,NA
b753e,Sit,html.Page,1_3_6_0,NA,form submission,61017,811443,811460,811496,872513,872514,2020-05-30T17:12:53Z,,,,,,,,,,,,,,,,,,,,,,,,,,NA
b753e,Seq,flow.Sequence,1_3_6,NA,completion,61017,811443,811460,811496,872513,872515,2020-05-30T17:12:53Z,,,,,,,,,,,,,,,,,,,,,,,,,,NA
b753e,Sit,html.Page,1_3_7_0,NA,form submission,31705,872516,872531,872573,904278,904279,2020-05-30T17:13:25Z,,,,,,,,,,,,,,,,,,,,,,,,,,NA
b753e,Seq,flow.Sequence,1_3_7,NA,completion,31705,872515,872531,872573,904278,904280,2020-05-30T17:13:25Z,,,,,,,,,,,,,,,,,,,,,,,,,,NA
b753e,Sit,html.Page,1_3_8_0,NA,form submission,16524,904281,904296,904326,920850,920851,2020-05-30T17:13:42Z,,,,,,,,,,,,,,,,,,,,,,,,,,NA
b753e,Seq,flow.Sequence,1_3_8,NA,completion,16524,904281,904296,904326,920850,920851,2020-05-30T17:13:42Z,,,,,,,,,,,,,,,,,,,,,,,,,,NA
b753e,Sit,html.Page,1_3_9_0,NA,form submission,20076,920852,920867,920902,940978,940979,2020-05-30T17:14:02Z,,,,,,,,,,,,,,,,,,,,,,,,,,NA
b753e,Seq,flow.Sequence,1_3_9,NA,completion,20076,920852,920867,920902,940978,940979,2020-05-30T17:14:02Z,,,,,,,,,,,,,,,,,,,,,,,,,,NA
b753e,Loop2,flow.Loop,1_3,NA,completion,457095,483833,483848,483883,940978,940979,2020-05-30T17:14:02Z,,,,,,,,,,,,,,,,,,,,,,,,,,NA
b753e,Progress,html.Page,1_4,NA,form submission,1648,940980,940985,940996,942644,942645,2020-05-30T17:14:03Z,,,,,,,,,,,,,,,,,,,,,,,,,,NA
b753e,Sit,html.Page,1_5_0_0,NA,form submission,36136,942645,942661,942691,978827,978829,2020-05-30T17:14:40Z,,,,,,,,,,,,,,,,,,,,,,,,,,NA
b753e,Seq,flow.Sequence,1_5_0,NA,completion,36136,942645,942661,942691,978827,978830,2020-05-30T17:14:40Z,,,,,,,,,,,,,,,,,,,,,,,,,,NA
b753e,Sit,html.Page,1_5_1_0,NA,form submission,35885,978830,978845,978882,1014767,1014768,2020-05-30T17:15:16Z,,,,,,,,,,,,,,,,,,,,,,,,,,NA
b753e,Seq,flow.Sequence,1_5_1,NA,completion,35885,978830,978845,978882,1014767,1014769,2020-05-30T17:15:16Z,,,,,,,,,,,,,,,,,,,,,,,,,,NA
b753e,Sit,html.Page,1_5_2_0,NA,form submission,46896,1014769,1014784,1014824,1061720,1061721,2020-05-30T17:16:02Z,,,,,,,,,,,,,,,,,,,,,,,,,,NA
b753e,Seq,flow.Sequence,1_5_2,NA,completion,46896,1014769,1014784,1014824,1061720,1061722,2020-05-30T17:16:02Z,,,,,,,,,,,,,,,,,,,,,,,,,,NA
b753e,Sit,html.Page,1_5_3_0,NA,form submission,36951,1061722,1061739,1061775,1098726,1098727,2020-05-30T17:16:39Z,,,,,,,,,,,,,,,,,,,,,,,,,,NA
b753e,Seq,flow.Sequence,1_5_3,NA,completion,36951,1061722,1061739,1061775,1098726,1098728,2020-05-30T17:16:39Z,,,,,,,,,,,,,,,,,,,,,,,,,,NA
b753e,Sit,html.Page,1_5_4_0,NA,form submission,145556,1098728,1098742,1098779,1244335,1244340,2020-05-30T17:19:05Z,,,,,,,,,,,,,,,,,,,,,,,,,,NA
b753e,Seq,flow.Sequence,1_5_4,NA,completion,145556,1098728,1098742,1098779,1244335,1244342,2020-05-30T17:19:05Z,,,,,,,,,,,,,,,,,,,,,,,,,,NA
b753e,Sit,html.Page,1_5_5_0,NA,form submission,15341,1244344,1244356,1244389,1259730,1259731,2020-05-30T17:19:20Z,,,,,,,,,,,,,,,,,,,,,,,,,,NA
b753e,Seq,flow.Sequence,1_5_5,NA,completion,15341,1244344,1244356,1244389,1259730,1259733,2020-05-30T17:19:20Z,,,,,,,,,,,,,,,,,,,,,,,,,,NA
b753e,Sit,html.Page,1_5_6_0,NA,form submission,26312,1259734,1259750,1259791,1286103,1286104,2020-05-30T17:19:47Z,,,,,,,,,,,,,,,,,,,,,,,,,,NA
b753e,Seq,flow.Sequence,1_5_6,NA,completion,26312,1259734,1259750,1259791,1286103,1286104,2020-05-30T17:19:47Z,,,,,,,,,,,,,,,,,,,,,,,,,,NA
b753e,Sit,html.Page,1_5_7_0,NA,form submission,21355,1286105,1286121,1286156,1307511,1307513,2020-05-30T17:20:08Z,,,,,,,,,,,,,,,,,,,,,,,,,,NA
b753e,Seq,flow.Sequence,1_5_7,NA,completion,21355,1286105,1286121,1286156,1307511,1307514,2020-05-30T17:20:08Z,,,,,,,,,,,,,,,,,,,,,,,,,,NA
b753e,Sit,html.Page,1_5_8_0,NA,form submission,23758,1307515,1307530,1307568,1331326,1331326,2020-05-30T17:20:32Z,,,,,,,,,,,,,,,,,,,,,,,,,,NA
b753e,Seq,flow.Sequence,1_5_8,NA,completion,23758,1307515,1307530,1307568,1331326,1331327,2020-05-30T17:20:32Z,,,,,,,,,,,,,,,,,,,,,,,,,,NA
b753e,Sit,html.Page,1_5_9_0,NA,form submission,17936,1331328,1331344,1331380,1349316,1349317,2020-05-30T17:20:50Z,,,,,,,,,,,,,,,,,,,,,,,,,,NA
b753e,Seq,flow.Sequence,1_5_9,NA,completion,17936,1331328,1331344,1331380,1349316,1349319,2020-05-30T17:20:50Z,,,,,,,,,,,,,,,,,,,,,,,,,,NA
b753e,Loop3,flow.Loop,1_5,NA,completion,406625,942645,942661,942691,1349316,1349319,2020-05-30T17:20:50Z,,,,,,,,,,,,,,,,,,,,,,,,,,NA
b753e,Risk_assessment,flow.Sequence,1,NA,completion,1267088,82204,82211,82228,1349316,1349320,2020-05-30T17:20:50Z,,,,,,,,,,,,,,,,,,,,,,,,,,NA
b753e,vp,html.Page,2_0_0,NA,form submission,17315,1349321,1349328,1349343,1366658,1366659,2020-05-30T17:21:07Z,,,,,,,,,,,,,,,,,,,,,,,,,,static/4.jpeg
b753e,loop,flow.Loop,2_0,NA,completion,17315,1349321,1349328,1349343,1366658,1366660,2020-05-30T17:21:07Z,,,,,,,,,,,,,,,,,,,,,,,,,,NA
f686f,welcome,html.Page,0_0,NA,form submission,76560,1268,1279,1294,77854,77855,2020-05-30T17:45:09Z,,,,,,,,,,,,,,,,,,,,,,,,,,NA
f686f,dem,html.Page,0_1,NA,form submission,62454,77855,77864,77888,140342,140344,2020-05-30T17:46:11Z,,,,,,,,,,,,,,,,,,,,,,,,,,NA
f686f,BFI-10,html.Page,0_2,NA,form submission,67116,140345,140387,140441,207557,207558,2020-05-30T17:47:18Z,,,,,,,,,,,,,,,,,,,,,,,,,,NA
f686f,Dem,flow.Sequence,0,NA,completion,206263,1268,1279,1294,207557,207564,2020-05-30T17:47:18Z,,,,,,,,,,,,,,,,,,,,,,,,,,NA
f686f,SitIntro,html.Page,1_0,NA,form submission,82851,207565,207583,207600,290451,290451,2020-05-30T17:48:41Z,,,,,,,,,,,,,,,,,,,,,,,,,,NA
af123,welcome,html.Page,0_0,NA,form submission,182159,2657,2667,2690,184849,184853,2020-05-30T17:49:12Z,,,,,,,,,,,,,,,,,,,,,,,,,,NA
f686f,Sit,html.Page,1_1_0_0,NA,form submission,35780,290453,290478,290537,326317,326318,2020-05-30T17:49:17Z,,,,,,,,,,,,,,,,,,,,,,,,,,NA
f686f,Seq,flow.Sequence,1_1_0,NA,completion,35780,290453,290478,290537,326317,326319,2020-05-30T17:49:17Z,,,,,,,,,,,,,,,,,,,,,,,,,,NA
af123,dem,html.Page,0_1,NA,form submission,37057,184854,184870,184894,221951,221954,2020-05-30T17:49:49Z,,,,,,,,,,,,,,,,,,,,,,,,,,NA
f686f,Sit,html.Page,1_1_1_0,NA,form submission,58502,326319,326336,326379,384881,384882,2020-05-30T17:50:16Z,,,,,,,,,,,,,,,,,,,,,,,,,,NA
f686f,Seq,flow.Sequence,1_1_1,NA,completion,58502,326319,326336,326379,384881,384883,2020-05-30T17:50:16Z,,,,,,,,,,,,,,,,,,,,,,,,,,NA
af123,BFI-10,html.Page,0_2,NA,form submission,42192,221958,221981,222035,264227,264229,2020-05-30T17:50:32Z,,,,,,,,,,,,,,,,,,,,,,,,,,NA
af123,Dem,flow.Sequence,0,NA,completion,261537,2657,2667,2690,264227,264235,2020-05-30T17:50:32Z,,,,,,,,,,,,,,,,,,,,,,,,,,NA
f686f,Sit,html.Page,1_1_2_0,NA,form submission,40980,384883,384900,384949,425929,425929,2020-05-30T17:50:57Z,,,,,,,,,,,,,,,,,,,,,,,,,,NA
f686f,Seq,flow.Sequence,1_1_2,NA,completion,40980,384883,384900,384949,425929,425930,2020-05-30T17:50:57Z,,,,,,,,,,,,,,,,,,,,,,,,,,NA
af123,SitIntro,html.Page,1_0,NA,form submission,31652,264237,264245,264256,295908,295910,2020-05-30T17:51:03Z,,,,,,,,,,,,,,,,,,,,,,,,,,NA
f686f,Sit,html.Page,1_1_3_0,NA,form submission,32683,425931,425950,425985,458668,458669,2020-05-30T17:51:30Z,,,,,,,,,,,,,,,,,,,,,,,,,,NA
f686f,Seq,flow.Sequence,1_1_3,NA,completion,32683,425930,425950,425985,458668,458670,2020-05-30T17:51:30Z,,,,,,,,,,,,,,,,,,,,,,,,,,NA
f686f,Sit,html.Page,1_1_4_0,NA,form submission,59846,458671,458688,458734,518580,518580,2020-05-30T17:52:29Z,,,,,,,,,,,,,,,,,,,,,,,,,,NA
f686f,Seq,flow.Sequence,1_1_4,NA,completion,59846,458671,458688,458734,518580,518581,2020-05-30T17:52:29Z,,,,,,,,,,,,,,,,,,,,,,,,,,NA
f686f,Sit,html.Page,1_1_5_0,NA,form submission,32205,518581,518598,518633,550838,550839,2020-05-30T17:53:02Z,,,,,,,,,,,,,,,,,,,,,,,,,,NA
f686f,Seq,flow.Sequence,1_1_5,NA,completion,32205,518581,518598,518633,550838,550841,2020-05-30T17:53:02Z,,,,,,,,,,,,,,,,,,,,,,,,,,NA
f686f,Sit,html.Page,1_1_6_0,NA,form submission,38390,550842,550863,550905,589295,589297,2020-05-30T17:53:40Z,,,,,,,,,,,,,,,,,,,,,,,,,,NA
f686f,Seq,flow.Sequence,1_1_6,NA,completion,38390,550842,550863,550905,589295,589298,2020-05-30T17:53:40Z,,,,,,,,,,,,,,,,,,,,,,,,,,NA
f686f,Sit,html.Page,1_1_7_0,NA,form submission,23042,589298,589318,589365,612407,612408,2020-05-30T17:54:03Z,,,,,,,,,,,,,,,,,,,,,,,,,,NA
f686f,Seq,flow.Sequence,1_1_7,NA,completion,23042,589298,589318,589365,612407,612409,2020-05-30T17:54:03Z,,,,,,,,,,,,,,,,,,,,,,,,,,NA
f686f,Sit,html.Page,1_1_8_0,NA,form submission,52458,612410,612428,612472,664930,664932,2020-05-30T17:54:56Z,,,,,,,,,,,,,,,,,,,,,,,,,,NA
f686f,Seq,flow.Sequence,1_1_8,NA,completion,52458,612410,612428,612472,664930,664932,2020-05-30T17:54:56Z,,,,,,,,,,,,,,,,,,,,,,,,,,NA
f686f,Sit,html.Page,1_1_9_0,NA,form submission,45347,664933,664948,664984,710331,710331,2020-05-30T17:55:41Z,,,,,,,,,,,,,,,,,,,,,,,,,,NA
f686f,Seq,flow.Sequence,1_1_9,NA,completion,45347,664933,664948,664984,710331,710332,2020-05-30T17:55:41Z,,,,,,,,,,,,,,,,,,,,,,,,,,NA
f686f,Loop1,flow.Loop,1_1,NA,completion,419794,290452,290478,290537,710331,710333,2020-05-30T17:55:41Z,,,,,,,,,,,,,,,,,,,,,,,,,,NA
f686f,Progress,html.Page,1_2,NA,form submission,5145,710334,710341,710350,715495,715496,2020-05-30T17:55:46Z,,,,,,,,,,,,,,,,,,,,,,,,,,NA
f686f,Sit,html.Page,1_3_0_0,NA,form submission,68248,715499,715519,715554,783802,783803,2020-05-30T17:56:55Z,,,,,,,,,,,,,,,,,,,,,,,,,,NA
f686f,Seq,flow.Sequence,1_3_0,NA,completion,68248,715498,715519,715554,783802,783804,2020-05-30T17:56:55Z,,,,,,,,,,,,,,,,,,,,,,,,,,NA
f686f,Sit,html.Page,1_3_1_0,NA,form submission,42473,783805,783825,783871,826344,826347,2020-05-30T17:57:37Z,,,,,,,,,,,,,,,,,,,,,,,,,,NA
f686f,Seq,flow.Sequence,1_3_1,NA,completion,42473,783805,783825,783871,826344,826348,2020-05-30T17:57:37Z,,,,,,,,,,,,,,,,,,,,,,,,,,NA
f686f,Sit,html.Page,1_3_2_0,NA,form submission,33031,826349,826364,826404,859435,859436,2020-05-30T17:58:10Z,,,,,,,,,,,,,,,,,,,,,,,,,,NA
f686f,Seq,flow.Sequence,1_3_2,NA,completion,33031,826348,826364,826404,859435,859437,2020-05-30T17:58:10Z,,,,,,,,,,,,,,,,,,,,,,,,,,NA
f686f,Sit,html.Page,1_3_3_0,NA,form submission,56879,859438,859455,859491,916370,916371,2020-05-30T17:59:07Z,,,,,,,,,,,,,,,,,,,,,,,,,,NA
f686f,Seq,flow.Sequence,1_3_3,NA,completion,56879,859437,859455,859491,916370,916372,2020-05-30T17:59:07Z,,,,,,,,,,,,,,,,,,,,,,,,,,NA
f686f,Sit,html.Page,1_3_4_0,NA,form submission,78839,916373,916398,916447,995286,995288,2020-05-30T18:00:26Z,,,,,,,,,,,,,,,,,,,,,,,,,,NA
f686f,Seq,flow.Sequence,1_3_4,NA,completion,78839,916372,916398,916447,995286,995289,2020-05-30T18:00:26Z,,,,,,,,,,,,,,,,,,,,,,,,,,NA
f686f,Sit,html.Page,1_3_5_0,NA,form submission,71089,995290,995305,995347,1066436,1066437,2020-05-30T18:01:37Z,,,,,,,,,,,,,,,,,,,,,,,,,,NA
f686f,Seq,flow.Sequence,1_3_5,NA,completion,71089,995290,995305,995347,1066436,1066438,2020-05-30T18:01:37Z,,,,,,,,,,,,,,,,,,,,,,,,,,NA
f686f,Sit,html.Page,1_3_6_0,NA,form submission,30594,1066438,1066457,1066501,1097095,1097096,2020-05-30T18:02:08Z,,,,,,,,,,,,,,,,,,,,,,,,,,NA
f686f,Seq,flow.Sequence,1_3_6,NA,completion,30594,1066438,1066457,1066501,1097095,1097097,2020-05-30T18:02:08Z,,,,,,,,,,,,,,,,,,,,,,,,,,NA
f686f,Sit,html.Page,1_3_7_0,NA,form submission,23093,1097097,1097114,1097147,1120240,1120242,2020-05-30T18:02:31Z,,,,,,,,,,,,,,,,,,,,,,,,,,NA
f686f,Seq,flow.Sequence,1_3_7,NA,completion,23093,1097097,1097114,1097147,1120240,1120242,2020-05-30T18:02:31Z,,,,,,,,,,,,,,,,,,,,,,,,,,NA
f686f,Sit,html.Page,1_3_8_0,NA,form submission,44068,1120243,1120260,1120300,1164368,1164369,2020-05-30T18:03:15Z,,,,,,,,,,,,,,,,,,,,,,,,,,NA
f686f,Seq,flow.Sequence,1_3_8,NA,completion,44068,1120243,1120260,1120300,1164368,1164369,2020-05-30T18:03:15Z,,,,,,,,,,,,,,,,,,,,,,,,,,NA
f686f,Sit,html.Page,1_3_9_0,NA,form submission,36688,1164370,1164389,1164430,1201118,1201119,2020-05-30T18:03:52Z,,,,,,,,,,,,,,,,,,,,,,,,,,NA
f686f,Seq,flow.Sequence,1_3_9,NA,completion,36688,1164370,1164389,1164430,1201118,1201120,2020-05-30T18:03:52Z,,,,,,,,,,,,,,,,,,,,,,,,,,NA
f686f,Loop2,flow.Loop,1_3,NA,completion,485564,715497,715519,715554,1201118,1201120,2020-05-30T18:03:52Z,,,,,,,,,,,,,,,,,,,,,,,,,,NA
f686f,Progress,html.Page,1_4,NA,form submission,4218,1201120,1201126,1201134,1205352,1205353,2020-05-30T18:03:56Z,,,,,,,,,,,,,,,,,,,,,,,,,,NA
f686f,Sit,html.Page,1_5_0_0,NA,form submission,30039,1205355,1205377,1205414,1235453,1235454,2020-05-30T18:04:26Z,,,,,,,,,,,,,,,,,,,,,,,,,,NA
f686f,Seq,flow.Sequence,1_5_0,NA,completion,30039,1205354,1205377,1205414,1235453,1235456,2020-05-30T18:04:26Z,,,,,,,,,,,,,,,,,,,,,,,,,,NA
f686f,Sit,html.Page,1_5_1_0,NA,form submission,33987,1235457,1235475,1235518,1269505,1269508,2020-05-30T18:05:00Z,,,,,,,,,,,,,,,,,,,,,,,,,,NA
f686f,Seq,flow.Sequence,1_5_1,NA,completion,33987,1235456,1235475,1235518,1269505,1269509,2020-05-30T18:05:00Z,,,,,,,,,,,,,,,,,,,,,,,,,,NA
f686f,Sit,html.Page,1_5_2_0,NA,form submission,39484,1269510,1269532,1269575,1309059,1309060,2020-05-30T18:05:40Z,,,,,,,,,,,,,,,,,,,,,,,,,,NA
f686f,Seq,flow.Sequence,1_5_2,NA,completion,39484,1269509,1269532,1269575,1309059,1309061,2020-05-30T18:05:40Z,,,,,,,,,,,,,,,,,,,,,,,,,,NA
f686f,Sit,html.Page,1_5_3_0,NA,form submission,42042,1309061,1309078,1309120,1351162,1351163,2020-05-30T18:06:22Z,,,,,,,,,,,,,,,,,,,,,,,,,,NA
f686f,Seq,flow.Sequence,1_5_3,NA,completion,42042,1309061,1309078,1309120,1351162,1351166,2020-05-30T18:06:22Z,,,,,,,,,,,,,,,,,,,,,,,,,,NA
f686f,Sit,html.Page,1_5_4_0,NA,form submission,47316,1351167,1351195,1351239,1398555,1398556,2020-05-30T18:07:09Z,,,,,,,,,,,,,,,,,,,,,,,,,,NA
f686f,Seq,flow.Sequence,1_5_4,NA,completion,47316,1351166,1351195,1351239,1398555,1398557,2020-05-30T18:07:09Z,,,,,,,,,,,,,,,,,,,,,,,,,,NA
f686f,Sit,html.Page,1_5_5_0,NA,form submission,35142,1398558,1398580,1398627,1433769,1433770,2020-05-30T18:07:45Z,,,,,,,,,,,,,,,,,,,,,,,,,,NA
f686f,Seq,flow.Sequence,1_5_5,NA,completion,35142,1398557,1398580,1398627,1433769,1433771,2020-05-30T18:07:45Z,,,,,,,,,,,,,,,,,,,,,,,,,,NA
f686f,Sit,html.Page,1_5_6_0,NA,form submission,37584,1433772,1433791,1433827,1471411,1471412,2020-05-30T18:08:22Z,,,,,,,,,,,,,,,,,,,,,,,,,,NA
f686f,Seq,flow.Sequence,1_5_6,NA,completion,37584,1433771,1433791,1433827,1471411,1471412,2020-05-30T18:08:22Z,,,,,,,,,,,,,,,,,,,,,,,,,,NA
f686f,Sit,html.Page,1_5_7_0,NA,form submission,35412,1471413,1471429,1471469,1506881,1506882,2020-05-30T18:08:58Z,,,,,,,,,,,,,,,,,,,,,,,,,,NA
f686f,Seq,flow.Sequence,1_5_7,NA,completion,35412,1471412,1471429,1471469,1506881,1506882,2020-05-30T18:08:58Z,,,,,,,,,,,,,,,,,,,,,,,,,,NA
f686f,Sit,html.Page,1_5_8_0,NA,form submission,34322,1506882,1506901,1506940,1541262,1541262,2020-05-30T18:09:32Z,,,,,,,,,,,,,,,,,,,,,,,,,,NA
f686f,Seq,flow.Sequence,1_5_8,NA,completion,34322,1506882,1506901,1506940,1541262,1541263,2020-05-30T18:09:32Z,,,,,,,,,,,,,,,,,,,,,,,,,,NA
f686f,Sit,html.Page,1_5_9_0,NA,form submission,36709,1541264,1541284,1541330,1578039,1578039,2020-05-30T18:10:09Z,,,,,,,,,,,,,,,,,,,,,,,,,,NA
f686f,Seq,flow.Sequence,1_5_9,NA,completion,36709,1541264,1541284,1541330,1578039,1578040,2020-05-30T18:10:09Z,,,,,,,,,,,,,,,,,,,,,,,,,,NA
f686f,Loop3,flow.Loop,1_5,NA,completion,372625,1205354,1205377,1205414,1578039,1578041,2020-05-30T18:10:09Z,,,,,,,,,,,,,,,,,,,,,,,,,,NA
f686f,Risk_assessment,flow.Sequence,1,NA,completion,1370439,207564,207583,207600,1578039,1578042,2020-05-30T18:10:09Z,,,,,,,,,,,,,,,,,,,,,,,,,,NA
f686f,vp,html.Page,2_0_0,NA,form submission,34205,1578042,1578052,1578075,1612280,1612281,2020-05-30T18:10:43Z,,,,,,,,,,,,,,,,,,,,,,,,,,static/3.jpeg
f686f,loop,flow.Loop,2_0,NA,completion,34205,1578042,1578052,1578075,1612280,1612281,2020-05-30T18:10:43Z,,,,,,,,,,,,,,,,,,,,,,,,,,NA
4fa1c,welcome,html.Page,0_0,NA,form submission,16658.935000023,1330.7100000093,1334.307,1367.655,18026.590000023,18028.39500003,2020-05-30T18:12:37Z,,,,,,,,,,,,,,,,,,,,,,,,,,NA
4fa1c,dem,html.Page,0_1,NA,form submission,46445.727000028,18028.99999998,18024.067,18090.763,64536.490000028,64536.759999988,2020-05-30T18:13:24Z,,,,,,,,,,,,,,,,,,,,,,,,,,NA
4fa1c,BFI-10,html.Page,0_2,NA,form submission,47751.733000007,64536.980000034,64551.339,64584.687,112336.42000001,112336.66999999,2020-05-30T18:14:11Z,,,,,,,,,,,,,,,,,,,,,,,,,,NA
4fa1c,Dem,flow.Sequence,0,NA,completion,110968.76500001,1330.6800000137,1334.307,1367.655,112336.42000001,112338.055,2020-05-30T18:14:11Z,,,,,,,,,,,,,,,,,,,,,,,,,,NA
4fa1c,SitIntro,html.Page,1_0,NA,form submission,27996.297000007,112338.21000002,112340.664,112357.338,140353.63500001,140353.85499999,2020-05-30T18:14:39Z,,,,,,,,,,,,,,,,,,,,,,,,,,NA
4fa1c,Sit,html.Page,1_1_0_0,NA,form submission,48052.989000019,140354.08999998,140361.487,140378.161,188431.15000002,188431.45500001,2020-05-30T18:15:27Z,,,,,,,,,,,,,,,,,,,,,,,,,,NA
4fa1c,Seq,flow.Sequence,1_1_0,NA,completion,48052.989000019,140354.06500002,140361.487,140378.161,188431.15000002,188431.82,2020-05-30T18:15:27Z,,,,,,,,,,,,,,,,,,,,,,,,,,NA
4fa1c,Sit,html.Page,1_1_1_0,NA,form submission,27865.049000033,188431.94500002,188435.452,188452.126,216317.17500003,216317.4,2020-05-30T18:15:55Z,,,,,,,,,,,,,,,,,,,,,,,,,,NA
4fa1c,Seq,flow.Sequence,1_1_1,NA,completion,27865.049000033,188431.92,188435.452,188452.126,216317.17500003,216317.62500003,2020-05-30T18:15:55Z,,,,,,,,,,,,,,,,,,,,,,,,,,NA
4fa1c,Sit,html.Page,1_1_2_0,NA,form submission,34655.807000019,216317.74500001,216321.429,216338.103,250993.91000002,250994.10000001,2020-05-30T18:16:30Z,,,,,,,,,,,,,,,,,,,,,,,,,,NA
4fa1c,Seq,flow.Sequence,1_1_2,NA,completion,34655.807000019,216317.71500001,216321.429,216338.103,250993.91000002,250994.27999998,2020-05-30T18:16:30Z,,,,,,,,,,,,,,,,,,,,,,,,,,NA
4fa1c,Sit,html.Page,1_1_3_0,NA,form submission,29531.296999997,250994.37500001,251002.634,251019.308,280550.605,280550.95,2020-05-30T18:17:00Z,,,,,,,,,,,,,,,,,,,,,,,,,,NA
4fa1c,Seq,flow.Sequence,1_1_3,NA,completion,29531.296999997,250994.34999999,251002.634,251019.308,280550.605,280551.225,2020-05-30T18:17:00Z,,,,,,,,,,,,,,,,,,,,,,,,,,NA
4fa1c,Sit,html.Page,1_1_4_0,NA,form submission,13545.156000028,280551.34000001,280570.26,280586.934,294132.09000003,294132.29500002,2020-05-30T18:17:13Z,,,,,,,,,,,,,,,,,,,,,,,,,,NA
4fa1c,Seq,flow.Sequence,1_1_4,NA,completion,13545.156000028,280551.31000001,280570.26,280586.934,294132.09000003,294132.48000003,2020-05-30T18:17:13Z,,,,,,,,,,,,,,,,,,,,,,,,,,NA
4fa1c,Sit,html.Page,1_1_5_0,NA,form submission,33206.867000009,294132.575,294143.189,294159.863,327366.73000001,327366.90000002,2020-05-30T18:17:46Z,,,,,,,,,,,,,,,,,,,,,,,,,,NA
4fa1c,Seq,flow.Sequence,1_1_5,NA,completion,33206.867000009,294132.54999998,294143.189,294159.863,327366.73000001,327367.065,2020-05-30T18:17:46Z,,,,,,,,,,,,,,,,,,,,,,,,,,NA
4fa1c,Sit,html.Page,1_1_6_0,NA,form submission,18055.370000019,327367.165,327366.267,327399.615,345454.98500002,345455.22499998,2020-05-30T18:18:04Z,,,,,,,,,,,,,,,,,,,,,,,,,,NA
4fa1c,Seq,flow.Sequence,1_1_6,NA,completion,18055.370000019,327367.14500003,327366.267,327399.615,345454.98500002,345455.45499999,2020-05-30T18:18:04Z,,,,,,,,,,,,,,,,,,,,,,,,,,NA
4fa1c,Sit,html.Page,1_1_7_0,NA,form submission,32482.833999982,345455.55499999,345457.328,345490.676,377973.50999998,377973.69000001,2020-05-30T18:18:37Z,,,,,,,,,,,,,,,,,,,,,,,,,,NA
4fa1c,Seq,flow.Sequence,1_1_7,NA,completion,32482.833999982,345455.53500002,345457.328,345490.676,377973.50999998,377973.86999999,2020-05-30T18:18:37Z,,,,,,,,,,,,,,,,,,,,,,,,,,NA
4fa1c,Sit,html.Page,1_1_8_0,NA,form submission,18373.427999991,377973.97500003,377983.903,378000.577,396374.00499999,396374.27000003,2020-05-30T18:18:55Z,,,,,,,,,,,,,,,,,,,,,,,,,,NA
4fa1c,Seq,flow.Sequence,1_1_8,NA,completion,18373.427999991,377973.94500003,377983.903,378000.577,396374.00499999,396374.43500001,2020-05-30T18:18:55Z,,,,,,,,,,,,,,,,,,,,,,,,,,NA
4fa1c,Sit,html.Page,1_1_9_0,NA,form submission,22082.860000018,396374.52499999,396374.797,396408.145,418491.00500002,418491.26500002,2020-05-30T18:19:18Z,,,,,,,,,,,,,,,,,,,,,,,,,,NA
4fa1c,Seq,flow.Sequence,1_1_9,NA,completion,22082.860000018,396374.50500001,396374.797,396408.145,418491.00500002,418492.08,2020-05-30T18:19:18Z,,,,,,,,,,,,,,,,,,,,,,,,,,NA
4fa1c,Loop1,flow.Loop,1_1,NA,completion,278112.84400002,140354.01499999,140361.487,140378.161,418491.00500002,418492.26000003,2020-05-30T18:19:18Z,,,,,,,,,,,,,,,,,,,,,,,,,,NA
4fa1c,Progress,html.Page,1_2,NA,form submission,7645.3299999963,418492.33500002,418501.951,418518.625,426163.955,426164.09999999,2020-05-30T18:19:25Z,,,,,,,,,,,,,,,,,,,,,,,,,,NA
4fa1c,Sit,html.Page,1_3_0_0,NA,form submission,18907.635999996,426164.24000001,426171.991,426205.339,445112.975,445113.13000001,2020-05-30T18:19:44Z,,,,,,,,,,,,,,,,,,,,,,,,,,NA
4fa1c,Seq,flow.Sequence,1_3_0,NA,completion,18907.635999996,426164.22500001,426171.991,426205.339,445112.975,445113.28500003,2020-05-30T18:19:44Z,,,,,,,,,,,,,,,,,,,,,,,,,,NA
4fa1c,Sit,html.Page,1_3_1_0,NA,form submission,23067.668000021,445113.37000004,445120.888,445137.562,468205.23000002,468205.42499999,2020-05-30T18:20:07Z,,,,,,,,,,,,,,,,,,,,,,,,,,NA
4fa1c,Seq,flow.Sequence,1_3_1,NA,completion,23067.668000021,445113.35,445120.888,445137.562,468205.23000002,468205.81499999,2020-05-30T18:20:07Z,,,,,,,,,,,,,,,,,,,,,,,,,,NA
4fa1c,Sit,html.Page,1_3_2_0,NA,form submission,15892.933000007,468205.915,468215.478,468232.152,484125.08500001,484125.23499998,2020-05-30T18:20:23Z,,,,,,,,,,,,,,,,,,,,,,,,,,NA
4fa1c,Seq,flow.Sequence,1_3_2,NA,completion,15892.933000007,468205.88999998,468215.478,468232.152,484125.08500001,484125.39499998,2020-05-30T18:20:23Z,,,,,,,,,,,,,,,,,,,,,,,,,,NA
4fa1c,Sit,html.Page,1_3_3_0,NA,form submission,28124.338999984,484125.47999999,484126.588,484159.936,512284.27499998,512284.47499999,2020-05-30T18:20:51Z,,,,,,,,,,,,,,,,,,,,,,,,,,NA
4fa1c,Seq,flow.Sequence,1_3_3,NA,completion,28124.338999984,484125.45500003,484126.588,484159.936,512284.27499998,512284.67999998,2020-05-30T18:20:51Z,,,,,,,,,,,,,,,,,,,,,,,,,,NA
4fa1c,Sit,html.Page,1_3_4_0,NA,form submission,38449.060000027,512284.78500003,512286.607,512319.955,550769.01500003,550769.28000001,2020-05-30T18:21:30Z,,,,,,,,,,,,,,,,,,,,,,,,,,NA
4fa1c,Seq,flow.Sequence,1_3_4,NA,completion,38449.060000027,512284.75500003,512286.607,512319.955,550769.01500003,550769.47499998,2020-05-30T18:21:30Z,,,,,,,,,,,,,,,,,,,,,,,,,,NA
4fa1c,Sit,html.Page,1_3_5_0,NA,form submission,11465.212000026,550769.58000002,550767.68,550801.028,562266.24000003,562266.41500002,2020-05-30T18:21:41Z,,,,,,,,,,,,,,,,,,,,,,,,,,NA
4fa1c,Seq,flow.Sequence,1_3_5,NA,completion,11465.212000026,550769.55500001,550767.68,550801.028,562266.24000003,562266.59499999,2020-05-30T18:21:41Z,,,,,,,,,,,,,,,,,,,,,,,,,,NA
4fa1c,Sit,html.Page,1_3_6_0,NA,form submission,21440.368000015,562266.70500002,562273.123,562289.797,583730.16500002,583730.35999999,2020-05-30T18:22:03Z,,,,,,,,,,,,,,,,,,,,,,,,,,NA
4fa1c,Seq,flow.Sequence,1_3_6,NA,completion,21440.368000015,562266.68499998,562273.123,562289.797,583730.16500002,583730.56500003,2020-05-30T18:22:03Z,,,,,,,,,,,,,,,,,,,,,,,,,,NA
4fa1c,Sit,html.Page,1_3_7_0,NA,form submission,22317.902999987,583730.66499998,583726.299,583759.647,606077.54999999,606077.71500002,2020-05-30T18:22:25Z,,,,,,,,,,,,,,,,,,,,,,,,,,NA
4fa1c,Seq,flow.Sequence,1_3_7,NA,completion,22317.902999987,583730.64000002,583726.299,583759.647,606077.54999999,606077.88500004,2020-05-30T18:22:25Z,,,,,,,,,,,,,,,,,,,,,,,,,,NA
4fa1c,Sit,html.Page,1_3_8_0,NA,form submission,65718.640000031,606077.98,606083.466,606100.14,671818.78000003,671819.07999999,2020-05-30T18:23:31Z,,,,,,,,,,,,,,,,,,,,,,,,,,NA
4fa1c,Seq,flow.Sequence,1_3_8,NA,completion,65718.640000031,606077.95000001,606083.466,606100.14,671818.78000003,671819.33000003,2020-05-30T18:23:31Z,,,,,,,,,,,,,,,,,,,,,,,,,,NA
4fa1c,Sit,html.Page,1_3_9_0,NA,form submission,35477.233000034,671819.61499999,671829.483,671846.157,707323.39000003,707323.645,2020-05-30T18:24:06Z,,,,,,,,,,,,,,,,,,,,,,,,,,NA
4fa1c,Seq,flow.Sequence,1_3_9,NA,completion,35477.233000034,671819.58499999,671829.483,671846.157,707323.39000003,707323.83499999,2020-05-30T18:24:06Z,,,,,,,,,,,,,,,,,,,,,,,,,,NA
4fa1c,Loop2,flow.Loop,1_3,NA,completion,281118.05100003,426164.2,426171.991,426205.339,707323.39000003,707323.95500003,2020-05-30T18:24:06Z,,,,,,,,,,,,,,,,,,,,,,,,,,NA
4fa1c,Progress,html.Page,1_4,NA,form submission,1960.6039999805,707324.02499998,707332.972,707349.646,709310.24999998,709310.41500001,2020-05-30T18:24:08Z,,,,,,,,,,,,,,,,,,,,,,,,,,NA
4fa1c,Sit,html.Page,1_5_0_0,NA,form submission,34495.922999991,709310.59000001,709317.178,709333.852,743829.77499999,743829.95500002,2020-05-30T18:24:43Z,,,,,,,,,,,,,,,,,,,,,,,,,,NA
4fa1c,Seq,flow.Sequence,1_5_0,NA,completion,34495.922999991,709310.56000001,709317.178,709333.852,743829.77499999,743830.13000002,2020-05-30T18:24:43Z,,,,,,,,,,,,,,,,,,,,,,,,,,NA
4fa1c,Sit,html.Page,1_5_1_0,NA,form submission,21493.35200001,743830.22,743830.75,743864.098,765357.45000001,765357.62000002,2020-05-30T18:25:04Z,,,,,,,,,,,,,,,,,,,,,,,,,,NA
4fa1c,Seq,flow.Sequence,1_5_1,NA,completion,21493.35200001,743830.20000003,743830.75,743864.098,765357.45000001,765357.785,2020-05-30T18:25:04Z,,,,,,,,,,,,,,,,,,,,,,,,,,NA
4fa1c,Sit,html.Page,1_5_2_0,NA,form submission,13334.314999998,765357.87499999,765353.487,765386.835,778721.15,778721.40500002,2020-05-30T18:25:18Z,,,,,,,,,,,,,,,,,,,,,,,,,,NA
4fa1c,Seq,flow.Sequence,1_5_2,NA,completion,13334.314999998,765357.85000003,765353.487,765386.835,778721.15,778721.62500001,2020-05-30T18:25:18Z,,,,,,,,,,,,,,,,,,,,,,,,,,NA
4fa1c,Sit,html.Page,1_5_3_0,NA,form submission,69651.220000035,778721.72500001,778724.752,778758.1,848409.32000004,848409.50000001,2020-05-30T18:26:27Z,,,,,,,,,,,,,,,,,,,,,,,,,,NA
4fa1c,Seq,flow.Sequence,1_5_3,NA,completion,69651.220000035,778721.70500003,778724.752,778758.1,848409.32000004,848409.67999998,2020-05-30T18:26:27Z,,,,,,,,,,,,,,,,,,,,,,,,,,NA
4fa1c,Sit,html.Page,1_5_4_0,NA,form submission,22169.728999979,848409.77999999,848405.118,848438.466,870608.19499998,870608.47000004,2020-05-30T18:26:50Z,,,,,,,,,,,,,,,,,,,,,,,,,,NA
4fa1c,Seq,flow.Sequence,1_5_4,NA,completion,22169.728999979,848409.74999999,848405.118,848438.466,870608.19499998,870609.03500003,2020-05-30T18:26:50Z,,,,,,,,,,,,,,,,,,,,,,,,,,NA
4fa1c,Sit,html.Page,1_5_5_0,NA,form submission,21436.792000015,870609.18000003,870626.939,870643.613,892080.40500002,892080.57500003,2020-05-30T18:27:11Z,,,,,,,,,,,,,,,,,,,,,,,,,,NA
4fa1c,Seq,flow.Sequence,1_5_5,NA,completion,21436.792000015,870609.15500001,870626.939,870643.613,892080.40500002,892080.75000002,2020-05-30T18:27:11Z,,,,,,,,,,,,,,,,,,,,,,,,,,NA
4fa1c,Sit,html.Page,1_5_6_0,NA,form submission,22028.313999988,892080.84000001,892084.597,892101.271,914129.58499999,914129.755,2020-05-30T18:27:33Z,,,,,,,,,,,,,,,,,,,,,,,,,,NA
4fa1c,Seq,flow.Sequence,1_5_6,NA,completion,22028.313999988,892080.81499999,892084.597,892101.271,914129.58499999,914129.92500002,2020-05-30T18:27:33Z,,,,,,,,,,,,,,,,,,,,,,,,,,NA
4fa1c,Sit,html.Page,1_5_7_0,NA,form submission,22309.052000019,914130.01999998,914135.084,914151.758,936460.81000002,936460.98000003,2020-05-30T18:27:56Z,,,,,,,,,,,,,,,,,,,,,,,,,,NA
4fa1c,Seq,flow.Sequence,1_5_7,NA,completion,22309.052000019,914129.99500002,914135.084,914151.758,936460.81000002,936461.14500001,2020-05-30T18:27:56Z,,,,,,,,,,,,,,,,,,,,,,,,,,NA
4fa1c,Sit,html.Page,1_5_8_0,NA,form submission,19147.719000024,936461.22500004,936453.438,936486.786,955634.50500002,955634.78000002,2020-05-30T18:28:15Z,,,,,,,,,,,,,,,,,,,,,,,,,,NA
4fa1c,Seq,flow.Sequence,1_5_8,NA,completion,19147.719000024,936461.205,936453.438,936486.786,955634.50500002,955635.03,2020-05-30T18:28:15Z,,,,,,,,,,,,,,,,,,,,,,,,,,NA
4fa1c,Sit,html.Page,1_5_9_0,NA,form submission,17270.192000002,955635.14000003,955629.045,955662.393,972932.585,972932.96000001,2020-05-30T18:28:32Z,,,,,,,,,,,,,,,,,,,,,,,,,,NA
4fa1c,Seq,flow.Sequence,1_5_9,NA,completion,17270.192000002,955635.11000003,955629.045,955662.393,972932.585,972933.13999998,2020-05-30T18:28:32Z,,,,,,,,,,,,,,,,,,,,,,,,,,NA
4fa1c,Loop3,flow.Loop,1_5,NA,completion,263598.733,709310.52,709317.178,709333.852,972932.585,972933.25499998,2020-05-30T18:28:32Z,,,,,,,,,,,,,,,,,,,,,,,,,,NA
4fa1c,Risk_assessment,flow.Sequence,1,NA,completion,860575.247,112338.17,112340.664,112357.338,972932.585,972933.35000001,2020-05-30T18:28:32Z,,,,,,,,,,,,,,,,,,,,,,,,,,NA
4fa1c,vp,html.Page,2_0_0,NA,form submission,29312.431000019,972933.46000003,972930.841,972964.189,1002276.62,1002276.79,2020-05-30T18:29:01Z,,,,,,,,,,,,,,,,,,,,,,,,,,static/4.jpeg
4fa1c,loop,flow.Loop,2_0,NA,completion,29312.431000019,972933.43999999,972930.841,972964.189,1002276.62,1002276.94,2020-05-30T18:29:01Z,,,,,,,,,,,,,,,,,,,,,,,,,,NA
015a9,welcome,html.Page,0_0,NA,form submission,117709,2642,3222,3234,120943,120950,2020-05-30T19:30:31Z,,,,,,,,,,,,,,,,,,,,,,,,,,NA
015a9,dem,html.Page,0_1,NA,form submission,128321,120956,121373,121383,249704,249726,2020-05-30T19:32:40Z,,,,,,,,,,,,,,,,,,,,,,,,,,NA
015a9,BFI-10,html.Page,0_2,NA,form submission,68177,249732,250335,250347,318524,318530,2020-05-30T19:33:49Z,,,,,,,,,,,,,,,,,,,,,,,,,,NA
015a9,Dem,flow.Sequence,0,NA,completion,315290,2641,3222,3234,318524,318572,2020-05-30T19:33:49Z,,,,,,,,,,,,,,,,,,,,,,,,,,NA
015a9,SitIntro,html.Page,1_0,NA,form submission,36679,318578,318620,318631,355310,355312,2020-05-30T19:34:26Z,,,,,,,,,,,,,,,,,,,,,,,,,,NA
015a9,Sit,html.Page,1_1_0_0,NA,form submission,56151,355318,355521,355528,411679,411682,2020-05-30T19:35:22Z,,,,,,,,,,,,,,,,,,,,,,,,,,NA
015a9,Seq,flow.Sequence,1_1_0,NA,completion,56151,355317,355521,355528,411679,411684,2020-05-30T19:35:22Z,,,,,,,,,,,,,,,,,,,,,,,,,,NA
015a9,Sit,html.Page,1_1_1_0,NA,form submission,32493,411689,411874,411884,444377,444379,2020-05-30T19:35:55Z,,,,,,,,,,,,,,,,,,,,,,,,,,NA
015a9,Seq,flow.Sequence,1_1_1,NA,completion,32493,411688,411874,411884,444377,444387,2020-05-30T19:35:55Z,,,,,,,,,,,,,,,,,,,,,,,,,,NA
015a9,Sit,html.Page,1_1_2_0,NA,form submission,40816,444390,444539,444548,485364,485367,2020-05-30T19:36:36Z,,,,,,,,,,,,,,,,,,,,,,,,,,NA
015a9,Seq,flow.Sequence,1_1_2,NA,completion,40816,444389,444539,444548,485364,485369,2020-05-30T19:36:36Z,,,,,,,,,,,,,,,,,,,,,,,,,,NA
015a9,Sit,html.Page,1_1_3_0,NA,form submission,36439,485375,485523,485529,521968,521971,2020-05-30T19:37:12Z,,,,,,,,,,,,,,,,,,,,,,,,,,NA
015a9,Seq,flow.Sequence,1_1_3,NA,completion,36439,485374,485523,485529,521968,521975,2020-05-30T19:37:12Z,,,,,,,,,,,,,,,,,,,,,,,,,,NA
015a9,Sit,html.Page,1_1_4_0,NA,form submission,37916,521978,522131,522142,560058,560060,2020-05-30T19:37:51Z,,,,,,,,,,,,,,,,,,,,,,,,,,NA
015a9,Seq,flow.Sequence,1_1_4,NA,completion,37916,521977,522131,522142,560058,560065,2020-05-30T19:37:51Z,,,,,,,,,,,,,,,,,,,,,,,,,,NA
015a9,Sit,html.Page,1_1_5_0,NA,form submission,23597,560069,560221,560230,583827,583830,2020-05-30T19:38:14Z,,,,,,,,,,,,,,,,,,,,,,,,,,NA
015a9,Seq,flow.Sequence,1_1_5,NA,completion,23597,560068,560221,560230,583827,583834,2020-05-30T19:38:14Z,,,,,,,,,,,,,,,,,,,,,,,,,,NA
015a9,Sit,html.Page,1_1_6_0,NA,form submission,26274,583838,583981,583989,610263,610267,2020-05-30T19:38:41Z,,,,,,,,,,,,,,,,,,,,,,,,,,NA
015a9,Seq,flow.Sequence,1_1_6,NA,completion,26274,583836,583981,583989,610263,610269,2020-05-30T19:38:41Z,,,,,,,,,,,,,,,,,,,,,,,,,,NA
015a9,Sit,html.Page,1_1_7_0,NA,form submission,107520,610272,610422,610429,717949,717980,2020-05-30T19:45:56Z,,,,,,,,,,,,,,,,,,,,,,,,,,NA
015a9,Seq,flow.Sequence,1_1_7,NA,completion,107520,610271,610422,610429,717949,717996,2020-05-30T19:45:56Z,,,,,,,,,,,,,,,,,,,,,,,,,,NA
015a9,Sit,html.Page,1_1_8_0,NA,form submission,31564,718004,718190,718231,749795,749800,2020-05-30T19:46:28Z,,,,,,,,,,,,,,,,,,,,,,,,,,NA
015a9,Seq,flow.Sequence,1_1_8,NA,completion,31564,718002,718190,718231,749795,749817,2020-05-30T19:46:28Z,,,,,,,,,,,,,,,,,,,,,,,,,,NA
015a9,Sit,html.Page,1_1_9_0,NA,form submission,37228,749824,749982,749994,787222,787227,2020-05-30T19:47:05Z,,,,,,,,,,,,,,,,,,,,,,,,,,NA
015a9,Seq,flow.Sequence,1_1_9,NA,completion,37228,749822,749982,749994,787222,787230,2020-05-30T19:47:05Z,,,,,,,,,,,,,,,,,,,,,,,,,,NA
015a9,Loop1,flow.Loop,1_1,NA,completion,431694,355314,355521,355528,787222,787234,2020-05-30T19:47:05Z,,,,,,,,,,,,,,,,,,,,,,,,,,NA
015a9,Progress,html.Page,1_2,NA,form submission,3767.0000000001,787237,787301,787307,791074,791077,2020-05-30T19:47:09Z,,,,,,,,,,,,,,,,,,,,,,,,,,NA
015a9,Sit,html.Page,1_3_0_0,NA,form submission,22135,791082,791436,791450,813585,813590,2020-05-30T19:47:32Z,,,,,,,,,,,,,,,,,,,,,,,,,,NA
015a9,Seq,flow.Sequence,1_3_0,NA,completion,22135,791082,791436,791450,813585,813597,2020-05-30T19:47:32Z,,,,,,,,,,,,,,,,,,,,,,,,,,NA
015a9,Sit,html.Page,1_3_1_0,NA,form submission,29864,813602,813762,813770,843634,843638,2020-05-30T19:48:02Z,,,,,,,,,,,,,,,,,,,,,,,,,,NA
015a9,Seq,flow.Sequence,1_3_1,NA,completion,29864,813601,813762,813770,843634,843645,2020-05-30T19:48:02Z,,,,,,,,,,,,,,,,,,,,,,,,,,NA
015a9,Sit,html.Page,1_3_2_0,NA,form submission,39076,843652,843809,843816,882892,882896,2020-05-30T19:48:41Z,,,,,,,,,,,,,,,,,,,,,,,,,,NA
015a9,Seq,flow.Sequence,1_3_2,NA,completion,39076,843648,843809,843816,882892,882901,2020-05-30T19:48:41Z,,,,,,,,,,,,,,,,,,,,,,,,,,NA
015a9,Sit,html.Page,1_3_3_0,NA,form submission,33408,882908,883052,883063,916471,916477,2020-05-30T19:49:15Z,,,,,,,,,,,,,,,,,,,,,,,,,,NA
015a9,Seq,flow.Sequence,1_3_3,NA,completion,33408,882906,883052,883063,916471,916486,2020-05-30T19:49:15Z,,,,,,,,,,,,,,,,,,,,,,,,,,NA
015a9,Sit,html.Page,1_3_4_0,NA,form submission,50552,916490,916633,916640,967192,967194,2020-05-30T19:50:05Z,,,,,,,,,,,,,,,,,,,,,,,,,,NA
015a9,Seq,flow.Sequence,1_3_4,NA,completion,50552,916489,916633,916640,967192,967196,2020-05-30T19:50:05Z,,,,,,,,,,,,,,,,,,,,,,,,,,NA
015a9,Sit,html.Page,1_3_5_0,NA,form submission,52716,967198,967355,967361,1020077,1020080,2020-05-30T19:50:58Z,,,,,,,,,,,,,,,,,,,,,,,,,,NA
015a9,Seq,flow.Sequence,1_3_5,NA,completion,52716,967198,967355,967361,1020077,1020090,2020-05-30T19:50:58Z,,,,,,,,,,,,,,,,,,,,,,,,,,NA
015a9,Sit,html.Page,1_3_6_0,NA,form submission,19560,1020094,1020242,1020248,1039808,1039812,2020-05-30T19:51:18Z,,,,,,,,,,,,,,,,,,,,,,,,,,NA
015a9,Seq,flow.Sequence,1_3_6,NA,completion,19560,1020093,1020242,1020248,1039808,1039815,2020-05-30T19:51:18Z,,,,,,,,,,,,,,,,,,,,,,,,,,NA
015a9,Sit,html.Page,1_3_7_0,NA,form submission,42799,1039819,1039974,1039984,1082783,1082786,2020-05-30T19:52:01Z,,,,,,,,,,,,,,,,,,,,,,,,,,NA
015a9,Seq,flow.Sequence,1_3_7,NA,completion,42799,1039818,1039974,1039984,1082783,1082789,2020-05-30T19:52:01Z,,,,,,,,,,,,,,,,,,,,,,,,,,NA
015a9,Sit,html.Page,1_3_8_0,NA,form submission,51397,1082792,1082936,1082943,1134340,1134344,2020-05-30T19:52:52Z,,,,,,,,,,,,,,,,,,,,,,,,,,NA
015a9,Seq,flow.Sequence,1_3_8,NA,completion,51397,1082791,1082936,1082943,1134340,1134347,2020-05-30T19:52:52Z,,,,,,,,,,,,,,,,,,,,,,,,,,NA
015a9,Sit,html.Page,1_3_9_0,NA,form submission,36633,1134350,1134486,1134497,1171130,1171132,2020-05-30T19:53:29Z,,,,,,,,,,,,,,,,,,,,,,,,,,NA
015a9,Seq,flow.Sequence,1_3_9,NA,completion,36633,1134349,1134486,1134497,1171130,1171136,2020-05-30T19:53:29Z,,,,,,,,,,,,,,,,,,,,,,,,,,NA
015a9,Loop2,flow.Loop,1_3,NA,completion,379680,791079,791436,791450,1171130,1171139,2020-05-30T19:53:29Z,,,,,,,,,,,,,,,,,,,,,,,,,,NA
015a9,Progress,html.Page,1_4,NA,form submission,8423,1171141,1171191,1171202,1179625,1179627,2020-05-30T19:53:38Z,,,,,,,,,,,,,,,,,,,,,,,,,,NA
015a9,Sit,html.Page,1_5_0_0,NA,form submission,27925,1179632,1179865,1179874,1207799,1207801,2020-05-30T19:54:06Z,,,,,,,,,,,,,,,,,,,,,,,,,,NA
015a9,Seq,flow.Sequence,1_5_0,NA,completion,27925,1179631,1179865,1179874,1207799,1207805,2020-05-30T19:54:06Z,,,,,,,,,,,,,,,,,,,,,,,,,,NA
015a9,Sit,html.Page,1_5_1_0,NA,form submission,27928,1207811,1207957,1207964,1235892,1235897,2020-05-30T19:54:34Z,,,,,,,,,,,,,,,,,,,,,,,,,,NA
015a9,Seq,flow.Sequence,1_5_1,NA,completion,27928,1207810,1207957,1207964,1235892,1235906,2020-05-30T19:54:34Z,,,,,,,,,,,,,,,,,,,,,,,,,,NA
015a9,Sit,html.Page,1_5_2_0,NA,form submission,23652,1235917,1236047,1236054,1259706,1259709,2020-05-30T19:54:58Z,,,,,,,,,,,,,,,,,,,,,,,,,,NA
015a9,Seq,flow.Sequence,1_5_2,NA,completion,23652,1235915,1236047,1236054,1259706,1259712,2020-05-30T19:54:58Z,,,,,,,,,,,,,,,,,,,,,,,,,,NA
015a9,Sit,html.Page,1_5_3_0,NA,form submission,37063,1259718,1259860,1259868,1296931,1296933,2020-05-30T19:55:35Z,,,,,,,,,,,,,,,,,,,,,,,,,,NA
015a9,Seq,flow.Sequence,1_5_3,NA,completion,37063,1259716,1259860,1259868,1296931,1296940,2020-05-30T19:55:35Z,,,,,,,,,,,,,,,,,,,,,,,,,,NA
015a9,Sit,html.Page,1_5_4_0,NA,form submission,27255,1296945,1297088,1297094,1324349,1324351,2020-05-30T19:56:02Z,,,,,,,,,,,,,,,,,,,,,,,,,,NA
015a9,Seq,flow.Sequence,1_5_4,NA,completion,27255,1296943,1297088,1297094,1324349,1324354,2020-05-30T19:56:02Z,,,,,,,,,,,,,,,,,,,,,,,,,,NA
015a9,Sit,html.Page,1_5_5_0,NA,form submission,47833,1324357,1324496,1324506,1372339,1372342,2020-05-30T19:56:50Z,,,,,,,,,,,,,,,,,,,,,,,,,,NA
015a9,Seq,flow.Sequence,1_5_5,NA,completion,47833,1324356,1324496,1324506,1372339,1372345,2020-05-30T19:56:50Z,,,,,,,,,,,,,,,,,,,,,,,,,,NA
015a9,Sit,html.Page,1_5_6_0,NA,form submission,26539,1372349,1372499,1372505,1399044,1399047,2020-05-30T19:57:17Z,,,,,,,,,,,,,,,,,,,,,,,,,,NA
015a9,Seq,flow.Sequence,1_5_6,NA,completion,26539,1372348,1372499,1372505,1399044,1399052,2020-05-30T19:57:17Z,,,,,,,,,,,,,,,,,,,,,,,,,,NA
